"","LizardID","Batch","TubID","Treatment","Date","Time","Trial","Correct","Choose.only.correct.dish","Latency","lt","learnt"
"1","1468460","1",9,"1",2015-09-09,"Afternoon",5,1,1,1380,1,1
"2","1468460","1",9,"1",2015-09-09,"Morning",4,1,0,454,1,1
"3","1468460","1",9,"1",2015-09-08,"Morning",2,0,0,NA,1,1
"4","1468460","1",9,"1",2015-09-10,"Afternoon",7,0,0,NA,1,1
"5","1468460","1",9,"1",2015-09-18,"Morning",14,1,0,1238,1,1
"6","1468460","1",9,"1",2015-09-15,"Afternoon",10,1,0,534,1,1
"7","1468460","1",9,"1",2015-09-16,"Morning",11,1,0,466,1,1
"8","1468460","1",9,"1",2015-09-08,"Afternoon",3,1,1,876,1,1
"9","1468460","1",9,"1",2015-09-07,"Morning",1,0,0,NA,1,1
"10","1468460","1",9,"1",2015-09-11,"Morning",8,0,0,NA,1,1
"11","1468460","1",9,"1",2015-09-14,"Morning",9,1,0,646,1,1
"12","1468460","1",9,"1",2015-09-17,"Morning",12,1,0,552,1,1
"13","1468460","1",9,"1",2015-09-18,"Afternoon",15,1,0,926,1,1
"14","1468460","1",9,"1",2015-09-10,"Morning",6,1,1,409,1,1
"15","1468460","1",9,"1",2015-09-17,"Afternoon",13,1,0,681,1,1
"16","1468476","1",15,"0",2015-09-09,"Afternoon",5,1,0,370,1,0
"17","1468476","1",15,"0",2015-09-14,"Afternoon",10,1,1,36,1,0
"18","1468476","1",15,"0",2015-09-08,"Morning",2,1,0,190,1,0
"19","1468476","1",15,"0",2015-09-10,"Afternoon",7,1,0,156,1,0
"20","1468476","1",15,"0",2015-09-16,"Morning",13,1,0,763,1,0
"21","1468476","1",15,"0",2015-09-07,"Morning",1,1,0,135,1,0
"22","1468476","1",15,"0",2015-09-14,"Morning",9,0,0,NA,1,0
"23","1468476","1",15,"0",2015-09-16,"Afternoon",14,1,0,225,1,0
"24","1468476","1",15,"0",2015-09-09,"Morning",4,0,0,NA,1,0
"25","1468476","1",15,"0",2015-09-17,"Afternoon",16,0,0,NA,1,0
"26","1468476","1",15,"0",2015-09-08,"Afternoon",3,1,0,180,1,0
"27","1468476","1",15,"0",2015-09-11,"Morning",8,0,0,NA,1,0
"28","1468476","1",15,"0",2015-09-17,"Morning",15,1,0,92,1,0
"29","1468476","1",15,"0",2015-09-18,"Afternoon",18,1,0,186,1,0
"30","1468476","1",15,"0",2015-09-10,"Morning",6,1,0,245,1,0
"31","1468476","1",15,"0",2015-09-15,"Morning",11,1,0,523,1,0
"32","1468476","1",15,"0",2015-09-15,"Afternoon",12,0,0,NA,1,0
"33","1468476","1",15,"0",2015-09-18,"Morning",17,1,0,438,1,0
"34","1468502","1",4,"1",2015-09-11,"Morning",8,1,1,1545,1,0
"35","1468502","1",4,"1",2015-09-14,"Afternoon",10,0,0,NA,1,0
"36","1468502","1",4,"1",2015-09-14,"Morning",9,0,0,NA,1,0
"37","1468502","1",4,"1",2015-09-15,"Afternoon",12,0,0,NA,1,0
"38","1468502","1",4,"1",2015-09-15,"Morning",11,1,1,1354,1,0
"39","1468502","1",4,"1",2015-09-16,"Afternoon",14,1,0,509,1,0
"40","1468502","1",4,"1",2015-09-07,"Morning",1,0,0,NA,1,0
"41","1468502","1",4,"1",2015-09-08,"Afternoon",3,1,1,2207,1,0
"42","1468502","1",4,"1",2015-09-08,"Morning",2,0,0,NA,1,0
"43","1468502","1",4,"1",2015-09-09,"Afternoon",5,1,0,1967,1,0
"44","1468502","1",4,"1",2015-09-09,"Morning",4,1,1,848,1,0
"45","1468502","1",4,"1",2015-09-10,"Afternoon",7,1,0,9250,1,0
"46","1468502","1",4,"1",2015-09-10,"Morning",6,1,0,482,1,0
"47","1468502","1",4,"1",2015-09-17,"Morning",15,0,0,NA,1,0
"48","1468502","1",4,"1",2015-09-18,"Afternoon",18,1,1,1402,1,0
"49","1468502","1",4,"1",2015-09-16,"Morning",13,0,0,NA,1,0
"50","1468502","1",4,"1",2015-09-17,"Afternoon",16,1,0,328,1,0
"51","1468502","1",4,"1",2015-09-18,"Morning",17,1,0,252,1,0
"52","1468504","2",7,"0",2015-11-14,"Morning",5,1,0,149,1,0
"53","1468504","2",7,"0",2015-11-19,"Morning",15,1,0,589,1,0
"54","1468504","2",7,"0",2015-11-14,"Afternoon",6,1,0,259,1,0
"55","1468504","2",7,"0",2015-11-20,"Morning",17,1,0,426,1,0
"56","1468504","2",7,"0",2015-11-21,"Afternoon",20,1,0,797,1,0
"57","1468504","2",7,"0",2015-11-15,"Afternoon",8,1,0,453,1,0
"58","1468504","2",7,"0",2015-11-20,"Afternoon",18,1,0,777,1,0
"59","1468504","2",7,"0",2015-11-16,"Afternoon",10,1,0,268,1,0
"60","1468504","2",7,"0",2015-11-16,"Morning",9,1,0,143,1,0
"61","1468504","2",7,"0",2015-11-17,"Afternoon",12,0,0,NA,1,0
"62","1468504","2",7,"0",2015-11-17,"Morning",11,0,0,NA,1,0
"63","1468504","2",7,"0",2015-11-18,"Afternoon",14,0,0,NA,1,0
"64","1468504","2",7,"0",2015-11-18,"Morning",13,1,0,329,1,0
"65","1468504","2",7,"0",2015-11-19,"Afternoon",16,0,0,NA,1,0
"66","1468504","2",7,"0",2015-11-12,"Morning",1,1,0,19,1,0
"67","1468504","2",7,"0",2015-11-13,"Afternoon",4,1,0,183,1,0
"68","1468504","2",7,"0",2015-11-13,"Morning",3,0,0,NA,1,0
"69","1468504","2",7,"0",2015-11-21,"Morning",19,1,0,431,1,0
"70","1468504","2",7,"0",2015-11-15,"Morning",7,0,0,NA,1,0
"71","1468504","2",7,"0",2015-11-12,"Afternoon",2,0,0,NA,1,0
"72","1468506","1",2,"1",2015-09-07,"Afternoon",2,0,0,NA,1,0
"73","1468506","1",2,"1",2015-09-07,"Morning",1,1,0,158,1,0
"74","1468506","1",2,"1",2015-09-08,"Afternoon",4,0,0,NA,1,0
"75","1468506","1",2,"1",2015-09-08,"Morning",3,0,0,NA,1,0
"76","1468506","1",2,"1",2015-09-09,"Morning",5,1,0,104,1,0
"77","1468506","1",2,"1",2015-09-10,"Afternoon",7,1,1,1182,1,0
"78","1468506","1",2,"1",2015-09-10,"Morning",6,1,1,203,1,0
"79","1468506","1",2,"1",2015-09-11,"Afternoon",9,1,0,476,1,0
"80","1468506","1",2,"1",2015-09-11,"Morning",8,0,0,NA,1,0
"81","1468506","1",2,"1",2015-09-14,"Afternoon",11,1,0,224,1,0
"82","1468506","1",2,"1",2015-09-14,"Morning",10,0,0,NA,1,0
"83","1468506","1",2,"1",2015-09-15,"Afternoon",13,0,0,NA,1,0
"84","1468506","1",2,"1",2015-09-15,"Morning",12,0,0,NA,1,0
"85","1468506","1",2,"1",2015-09-16,"Afternoon",15,0,0,NA,1,0
"86","1468506","1",2,"1",2015-09-16,"Morning",14,1,0,64,1,0
"87","1468506","1",2,"1",2015-09-17,"Afternoon",17,1,0,443,1,0
"88","1468506","1",2,"1",2015-09-17,"Morning",16,0,0,NA,1,0
"89","1468506","1",2,"1",2015-09-18,"Afternoon",19,1,0,227,1,0
"90","1468506","1",2,"1",2015-09-18,"Morning",18,1,0,13,1,0
"91","1468509","1",8,"1",2015-10-23,"Afternoon",10,1,0,673,1,0
"92","1468509","1",8,"1",2015-10-22,"Morning",7,0,0,NA,1,0
"93","1468509","1",8,"1",2015-10-19,"Afternoon",2,1,0,489,1,0
"94","1468509","1",8,"1",2015-10-22,"Afternoon",8,1,0,310,1,0
"95","1468509","1",8,"1",2015-10-20,"Morning",3,1,0,286,1,0
"96","1468509","1",8,"1",2015-10-21,"Morning",5,0,0,NA,1,0
"97","1468509","1",8,"1",2015-10-23,"Morning",9,1,0,187,1,0
"98","1468509","1",8,"1",2015-10-29,"Afternoon",18,1,0,251,1,0
"99","1468509","1",8,"1",2015-10-29,"Morning",17,0,0,NA,1,0
"100","1468509","1",8,"1",2015-10-30,"Afternoon",20,0,0,NA,1,0
"101","1468509","1",8,"1",2015-10-19,"Morning",1,0,0,NA,1,0
"102","1468509","1",8,"1",2015-10-20,"Afternoon",4,0,0,NA,1,0
"103","1468509","1",8,"1",2015-10-27,"Morning",13,0,0,NA,1,0
"104","1468509","1",8,"1",2015-10-26,"Afternoon",12,1,0,171,1,0
"105","1468509","1",8,"1",2015-10-28,"Afternoon",16,1,0,453,1,0
"106","1468509","1",8,"1",2015-10-28,"Morning",15,1,0,70,1,0
"107","1468509","1",8,"1",2015-10-27,"Afternoon",14,0,0,NA,1,0
"108","1468509","1",8,"1",2015-10-21,"Afternoon",6,0,0,NA,1,0
"109","1468509","1",8,"1",2015-10-30,"Morning",19,1,0,82,1,0
"110","1468509","1",8,"1",2015-10-26,"Morning",11,1,0,273,1,0
"111","1468510","1",6,"1",2015-09-15,"Afternoon",10,1,1,1966,0,1
"112","1468510","1",6,"1",2015-09-16,"Morning",11,1,0,135,0,1
"113","1468510","1",6,"1",2015-09-07,"Afternoon",1,0,0,NA,1,1
"114","1468510","1",6,"1",2015-09-17,"Afternoon",13,1,0,421,0,1
"115","1468510","1",6,"1",2015-09-17,"Morning",12,0,0,NA,0,1
"116","1468510","1",6,"1",2015-09-15,"Morning",9,1,0,654,1,1
"117","1468510","1",6,"1",2015-09-08,"Morning",2,0,0,NA,1,1
"118","1468510","1",6,"1",2015-09-09,"Morning",4,1,1,1657,1,1
"119","1468510","1",6,"1",2015-09-10,"Afternoon",6,1,1,787,1,1
"120","1468510","1",6,"1",2015-09-08,"Afternoon",3,1,1,1544,1,1
"121","1468510","1",6,"1",2015-09-18,"Morning",14,1,0,402,0,1
"122","1468510","1",6,"1",2015-09-11,"Morning",7,1,1,488,1,1
"123","1468510","1",6,"1",2015-09-14,"Morning",8,1,0,1083,1,1
"124","1468510","1",6,"1",2015-09-10,"Morning",5,1,1,784,1,1
"125","1468515","1",10,"1",2015-09-08,"Morning",2,1,0,55,1,1
"126","1468515","1",10,"1",2015-09-09,"Afternoon",5,1,1,89,1,1
"127","1468515","1",10,"1",2015-09-16,"Morning",14,1,0,66,0,1
"128","1468515","1",10,"1",2015-09-08,"Afternoon",3,1,0,125,1,1
"129","1468515","1",10,"1",2015-09-07,"Morning",1,1,0,58,1,1
"130","1468515","1",10,"1",2015-09-10,"Morning",6,0,0,NA,1,1
"131","1468515","1",10,"1",2015-09-10,"Afternoon",7,1,0,181,1,1
"132","1468515","1",10,"1",2015-09-17,"Morning",15,1,0,194,0,1
"133","1468515","1",10,"1",2015-09-11,"Morning",8,1,0,64,1,1
"134","1468515","1",10,"1",2015-09-09,"Morning",4,1,0,51,1,1
"135","1468515","1",10,"1",2015-09-14,"Morning",10,1,0,82,0,1
"136","1468515","1",10,"1",2015-09-15,"Afternoon",13,1,1,53,0,1
"137","1468515","1",10,"1",2015-09-15,"Morning",12,1,0,116,0,1
"138","1468515","1",10,"1",2015-09-18,"Afternoon",18,1,0,185,0,1
"139","1468515","1",10,"1",2015-09-17,"Afternoon",16,0,0,NA,0,1
"140","1468515","1",10,"1",2015-09-11,"Afternoon",9,0,0,NA,0,1
"141","1468515","1",10,"1",2015-09-14,"Afternoon",11,1,0,105,0,1
"142","1468515","1",10,"1",2015-09-18,"Morning",17,1,0,71,0,1
"143","1468516","2",12,"0",2015-11-15,"Afternoon",8,1,0,86,1,1
"144","1468516","2",12,"0",2015-11-12,"Afternoon",2,0,0,NA,1,1
"145","1468516","2",12,"0",2015-11-12,"Morning",1,1,0,18,1,1
"146","1468516","2",12,"0",2015-11-13,"Afternoon",4,1,0,126,1,1
"147","1468516","2",12,"0",2015-11-13,"Morning",3,1,0,88,1,1
"148","1468516","2",12,"0",2015-11-14,"Afternoon",6,1,0,69,1,1
"149","1468516","2",12,"0",2015-11-14,"Morning",5,1,0,17,1,1
"150","1468516","2",12,"0",2015-11-21,"Morning",19,0,0,NA,0,1
"151","1468516","2",12,"0",2015-11-15,"Morning",7,1,0,145,1,1
"152","1468516","2",12,"0",2015-11-16,"Afternoon",10,1,0,55,0,1
"153","1468516","2",12,"0",2015-11-16,"Morning",9,1,0,177,0,1
"154","1468516","2",12,"0",2015-11-17,"Afternoon",12,0,0,NA,0,1
"155","1468516","2",12,"0",2015-11-17,"Morning",11,0,0,NA,0,1
"156","1468516","2",12,"0",2015-11-18,"Afternoon",14,0,0,NA,0,1
"157","1468516","2",12,"0",2015-11-18,"Morning",13,1,0,372,0,1
"158","1468516","2",12,"0",2015-11-19,"Afternoon",16,0,0,NA,0,1
"159","1468516","2",12,"0",2015-11-19,"Morning",15,0,0,NA,0,1
"160","1468516","2",12,"0",2015-11-20,"Afternoon",18,1,0,1890,0,1
"161","1468516","2",12,"0",2015-11-20,"Morning",17,0,0,NA,0,1
"162","1468516","2",12,"0",2015-11-21,"Afternoon",20,0,0,NA,0,1
"163","1468529","2",9,"0",2015-11-13,"Afternoon",4,0,0,NA,1,0
"164","1468529","2",9,"0",2015-11-13,"Morning",3,1,0,89,1,0
"165","1468529","2",9,"0",2015-11-21,"Afternoon",20,1,0,873,1,0
"166","1468529","2",9,"0",2015-11-21,"Morning",19,0,0,NA,1,0
"167","1468529","2",9,"0",2015-11-14,"Afternoon",6,0,0,NA,1,0
"168","1468529","2",9,"0",2015-11-14,"Morning",5,0,0,NA,1,0
"169","1468529","2",9,"0",2015-11-12,"Morning",1,1,0,104,1,0
"170","1468529","2",9,"0",2015-11-18,"Morning",13,1,0,455,1,0
"171","1468529","2",9,"0",2015-11-19,"Afternoon",16,1,0,777,1,0
"172","1468529","2",9,"0",2015-11-19,"Morning",15,1,0,1226,1,0
"173","1468529","2",9,"0",2015-11-20,"Afternoon",18,0,0,NA,1,0
"174","1468529","2",9,"0",2015-11-20,"Morning",17,1,0,195,1,0
"175","1468529","2",9,"0",2015-11-16,"Morning",9,0,0,NA,1,0
"176","1468529","2",9,"0",2015-11-15,"Afternoon",8,1,1,135,1,0
"177","1468529","2",9,"0",2015-11-15,"Morning",7,1,0,185,1,0
"178","1468529","2",9,"0",2015-11-16,"Afternoon",10,0,0,NA,1,0
"179","1468529","2",9,"0",2015-11-18,"Afternoon",14,0,0,NA,1,0
"180","1468529","2",9,"0",2015-11-17,"Afternoon",12,0,0,NA,1,0
"181","1468529","2",9,"0",2015-11-12,"Afternoon",2,1,0,149,1,0
"182","1468529","2",9,"0",2015-11-17,"Morning",11,1,0,1386,1,0
"183","1468532","1",16,"0",2015-09-14,"Morning",11,1,0,44,1,0
"184","1468532","1",16,"0",2015-09-09,"Afternoon",6,0,0,NA,1,0
"185","1468532","1",16,"0",2015-09-18,"Morning",19,1,0,156,1,0
"186","1468532","1",16,"0",2015-09-11,"Morning",9,1,1,336,1,0
"187","1468532","1",16,"0",2015-09-18,"Afternoon",20,1,0,124,1,0
"188","1468532","1",16,"0",2015-09-14,"Afternoon",12,0,0,NA,1,0
"189","1468532","1",16,"0",2015-09-11,"Afternoon",10,0,0,NA,1,0
"190","1468532","1",16,"0",2015-09-17,"Afternoon",18,1,0,725,1,0
"191","1468532","1",16,"0",2015-09-08,"Afternoon",4,1,1,248,1,0
"192","1468532","1",16,"0",2015-09-10,"Afternoon",8,1,0,1141,1,0
"193","1468532","1",16,"0",2015-09-16,"Morning",15,0,0,NA,1,0
"194","1468532","1",16,"0",2015-09-08,"Morning",3,1,0,186,1,0
"195","1468532","1",16,"0",2015-09-07,"Afternoon",2,0,0,NA,1,0
"196","1468532","1",16,"0",2015-09-15,"Afternoon",14,0,0,NA,1,0
"197","1468532","1",16,"0",2015-09-10,"Morning",7,0,0,NA,1,0
"198","1468532","1",16,"0",2015-09-16,"Afternoon",16,1,0,546,1,0
"199","1468532","1",16,"0",2015-09-07,"Morning",1,0,0,NA,1,0
"200","1468532","1",16,"0",2015-09-15,"Morning",13,0,0,NA,1,0
"201","1468532","1",16,"0",2015-09-17,"Morning",17,0,0,NA,1,0
"202","1468532","1",16,"0",2015-09-09,"Morning",5,1,0,138,1,0
"203","1468535","1",12,"0",2015-09-07,"Morning",1,0,0,NA,1,0
"204","1468535","1",12,"0",2015-09-08,"Afternoon",4,1,0,165,1,0
"205","1468535","1",12,"0",2015-09-18,"Morning",19,0,0,NA,1,0
"206","1468535","1",12,"0",2015-09-11,"Afternoon",10,1,0,723,1,0
"207","1468535","1",12,"0",2015-09-10,"Afternoon",8,0,0,NA,1,0
"208","1468535","1",12,"0",2015-09-10,"Morning",7,0,0,NA,1,0
"209","1468535","1",12,"0",2015-09-14,"Morning",11,0,0,NA,1,0
"210","1468535","1",12,"0",2015-09-15,"Afternoon",14,1,0,188,1,0
"211","1468535","1",12,"0",2015-09-07,"Afternoon",2,0,0,NA,1,0
"212","1468535","1",12,"0",2015-09-14,"Afternoon",12,1,0,109,1,0
"213","1468535","1",12,"0",2015-09-17,"Morning",17,0,0,NA,1,0
"214","1468535","1",12,"0",2015-09-09,"Afternoon",6,1,0,189,1,0
"215","1468535","1",12,"0",2015-09-15,"Morning",13,1,0,71,1,0
"216","1468535","1",12,"0",2015-09-09,"Morning",5,1,0,53,1,0
"217","1468535","1",12,"0",2015-09-08,"Morning",3,1,0,61,1,0
"218","1468535","1",12,"0",2015-09-17,"Afternoon",18,0,0,NA,1,0
"219","1468535","1",12,"0",2015-09-11,"Morning",9,0,0,NA,1,0
"220","1468535","1",12,"0",2015-09-16,"Afternoon",16,1,0,110,1,0
"221","1468535","1",12,"0",2015-09-16,"Morning",15,0,0,NA,1,0
"222","1468538","2",11,"0",2015-11-12,"Afternoon",2,1,0,710,1,0
"223","1468538","2",11,"0",2015-11-12,"Morning",1,0,0,NA,1,0
"224","1468538","2",11,"0",2015-11-13,"Morning",3,1,0,314,1,0
"225","1468538","2",11,"0",2015-11-14,"Afternoon",6,1,0,1424,1,0
"226","1468538","2",11,"0",2015-11-14,"Morning",5,0,0,NA,1,0
"227","1468538","2",11,"0",2015-11-13,"Afternoon",4,0,0,NA,1,0
"228","1468538","2",11,"0",2015-11-15,"Morning",7,0,0,NA,1,0
"229","1468538","2",11,"0",2015-11-16,"Afternoon",10,0,0,NA,1,0
"230","1468538","2",11,"0",2015-11-16,"Morning",9,1,0,3434,1,0
"231","1468538","2",11,"0",2015-11-17,"Afternoon",12,1,0,1100,1,0
"232","1468538","2",11,"0",2015-11-17,"Morning",11,1,0,2724,1,0
"233","1468538","2",11,"0",2015-11-18,"Morning",13,0,0,NA,1,0
"234","1468538","2",11,"0",2015-11-21,"Afternoon",18,0,0,NA,1,0
"235","1468538","2",11,"0",2015-11-19,"Afternoon",15,0,0,NA,1,0
"236","1468538","2",11,"0",2015-11-19,"Morning",14,0,0,NA,1,0
"237","1468538","2",11,"0",2015-11-20,"Afternoon",16,0,0,NA,1,0
"238","1468538","2",11,"0",2015-11-21,"Morning",17,1,0,798,1,0
"239","1468538","2",11,"0",2015-11-15,"Afternoon",8,0,0,NA,1,0
"240","1468549","1",1,"1",2015-09-07,"Afternoon",2,0,0,NA,1,0
"241","1468549","1",1,"1",2015-09-07,"Morning",1,0,0,NA,1,0
"242","1468549","1",1,"1",2015-09-08,"Afternoon",4,1,0,1076,1,0
"243","1468549","1",1,"1",2015-09-08,"Morning",3,1,0,169,1,0
"244","1468549","1",1,"1",2015-09-09,"Afternoon",6,1,1,3506,1,0
"245","1468549","1",1,"1",2015-09-09,"Morning",5,1,1,227,1,0
"246","1468549","1",1,"1",2015-09-10,"Afternoon",8,1,1,956,1,0
"247","1468549","1",1,"1",2015-09-10,"Morning",7,1,0,457,1,0
"248","1468549","1",1,"1",2015-09-11,"Afternoon",10,0,0,NA,1,0
"249","1468549","1",1,"1",2015-09-11,"Morning",9,0,0,NA,1,0
"250","1468549","1",1,"1",2015-09-14,"Afternoon",12,1,0,783,1,0
"251","1468549","1",1,"1",2015-09-14,"Morning",11,0,0,NA,1,0
"252","1468549","1",1,"1",2015-09-15,"Afternoon",14,1,1,928,1,0
"253","1468549","1",1,"1",2015-09-15,"Morning",13,1,0,332,1,0
"254","1468549","1",1,"1",2015-09-16,"Afternoon",16,0,0,NA,1,0
"255","1468549","1",1,"1",2015-09-16,"Morning",15,1,1,1132,1,0
"256","1468549","1",1,"1",2015-09-17,"Afternoon",18,0,0,NA,1,0
"257","1468549","1",1,"1",2015-09-17,"Morning",17,1,0,850,1,0
"258","1468549","1",1,"1",2015-09-18,"Afternoon",20,1,0,669,1,0
"259","1468549","1",1,"1",2015-09-18,"Morning",19,1,0,243,1,0
"260","1469178","2",6,"0",2015-11-13,"Morning",3,0,0,NA,1,0
"261","1469178","2",6,"0",2015-11-14,"Afternoon",5,0,0,NA,1,0
"262","1469178","2",6,"0",2015-11-13,"Afternoon",4,0,0,NA,1,0
"263","1469178","2",6,"0",2015-11-20,"Afternoon",17,0,0,NA,1,0
"264","1469178","2",6,"0",2015-11-20,"Morning",16,0,0,NA,1,0
"265","1469178","2",6,"0",2015-11-21,"Afternoon",19,0,0,NA,1,0
"266","1469178","2",6,"0",2015-11-19,"Morning",14,0,0,NA,1,0
"267","1469178","2",6,"0",2015-11-12,"Afternoon",2,0,0,NA,1,0
"268","1469178","2",6,"0",2015-11-12,"Morning",1,0,0,NA,1,0
"269","1469178","2",6,"0",2015-11-16,"Afternoon",9,0,0,NA,1,0
"270","1469178","2",6,"0",2015-11-16,"Morning",8,1,0,1843,1,0
"271","1469178","2",6,"0",2015-11-15,"Afternoon",7,0,0,NA,1,0
"272","1469178","2",6,"0",2015-11-15,"Morning",6,0,0,NA,1,0
"273","1469178","2",6,"0",2015-11-18,"Afternoon",13,1,0,236,1,0
"274","1469178","2",6,"0",2015-11-18,"Morning",12,0,0,NA,1,0
"275","1469178","2",6,"0",2015-11-17,"Afternoon",11,0,0,NA,1,0
"276","1469178","2",6,"0",2015-11-17,"Morning",10,0,0,NA,1,0
"277","1469178","2",6,"0",2015-11-21,"Morning",18,0,0,NA,1,0
"278","1469178","2",6,"0",2015-11-19,"Afternoon",15,0,0,NA,1,0
"279","1469218","1",14,"0",2015-09-10,"Afternoon",8,1,0,185,1,1
"280","1469218","1",14,"0",2015-09-09,"Afternoon",6,1,0,147,1,1
"281","1469218","1",14,"0",2015-09-16,"Afternoon",16,1,0,293,0,1
"282","1469218","1",14,"0",2015-09-14,"Morning",11,1,0,321,1,1
"283","1469218","1",14,"0",2015-09-09,"Morning",5,0,0,NA,1,1
"284","1469218","1",14,"0",2015-09-10,"Morning",7,1,0,287,1,1
"285","1469218","1",14,"0",2015-09-07,"Morning",1,1,0,553,1,1
"286","1469218","1",14,"0",2015-09-08,"Morning",3,1,0,250,1,1
"287","1469218","1",14,"0",2015-09-15,"Afternoon",14,1,0,203,0,1
"288","1469218","1",14,"0",2015-09-15,"Morning",13,1,0,127,0,1
"289","1469218","1",14,"0",2015-09-18,"Morning",19,1,0,799,0,1
"290","1469218","1",14,"0",2015-09-11,"Afternoon",10,1,1,596,1,1
"291","1469218","1",14,"0",2015-09-17,"Morning",17,0,0,NA,0,1
"292","1469218","1",14,"0",2015-09-18,"Afternoon",20,1,0,130,0,1
"293","1469218","1",14,"0",2015-09-17,"Afternoon",18,1,0,138,0,1
"294","1469218","1",14,"0",2015-09-07,"Afternoon",2,0,0,NA,1,1
"295","1469218","1",14,"0",2015-09-11,"Morning",9,1,0,191,1,1
"296","1469218","1",14,"0",2015-09-14,"Afternoon",12,1,1,1003,1,1
"297","1469218","1",14,"0",2015-09-16,"Morning",15,1,0,150,0,1
"298","1469218","1",14,"0",2015-09-08,"Afternoon",4,0,0,NA,1,1
"299","1469222","2",3,"1",2015-11-16,"Afternoon",9,0,0,NA,1,0
"300","1469222","2",3,"1",2015-11-13,"Morning",3,1,0,255,1,1
"301","1469222","2",3,"1",2015-11-19,"Afternoon",15,1,0,1215,1,0
"302","1469222","2",3,"1",2015-11-15,"Afternoon",7,0,0,NA,1,1
"303","1469222","2",3,"1",2015-11-15,"Morning",6,1,0,1010,1,1
"304","1469222","2",3,"1",2015-11-21,"Morning",18,0,1,NA,1,0
"305","1469222","2",3,"1",2015-11-20,"Afternoon",17,0,0,NA,1,0
"306","1469222","2",3,"1",2015-11-12,"Afternoon",2,1,0,1942,1,1
"307","1469222","2",3,"1",2015-11-12,"Morning",1,1,0,899,1,1
"308","1469222","2",3,"1",2015-11-18,"Afternoon",13,0,0,NA,1,0
"309","1469222","2",3,"1",2015-11-14,"Afternoon",5,1,0,1130,1,1
"310","1469222","2",3,"1",2015-11-14,"Morning",4,0,0,NA,1,1
"311","1469222","2",3,"1",2015-11-21,"Afternoon",19,0,0,NA,1,0
"312","1469222","2",3,"1",2015-11-20,"Morning",16,1,0,3416,1,0
"313","1469222","2",3,"1",2015-11-19,"Morning",14,0,0,NA,1,0
"314","1469222","2",3,"1",2015-11-16,"Morning",8,1,0,109,1,0
"315","1469222","2",3,"1",2015-11-17,"Afternoon",11,1,0,1089,1,0
"316","1469222","2",3,"1",2015-11-17,"Morning",10,0,0,NA,1,0
"317","1469222","2",3,"1",2015-11-18,"Morning",12,0,1,NA,1,0
"318","1469223","1",11,"1",2015-09-11,"Morning",7,1,1,828,1,0
"319","1469223","1",11,"1",2015-09-18,"Afternoon",16,0,0,NA,1,0
"320","1469223","1",11,"1",2015-09-16,"Morning",12,1,0,953,1,0
"321","1469223","1",11,"1",2015-09-09,"Morning",3,0,0,NA,1,0
"322","1469223","1",11,"1",2015-09-14,"Morning",9,1,0,869,1,0
"323","1469223","1",11,"1",2015-09-10,"Afternoon",6,0,0,NA,1,0
"324","1469223","1",11,"1",2015-09-10,"Morning",5,0,0,NA,1,0
"325","1469223","1",11,"1",2015-09-11,"Afternoon",8,0,0,NA,1,0
"326","1469223","1",11,"1",2015-09-07,"Morning",1,0,0,NA,1,0
"327","1469223","1",11,"1",2015-09-18,"Morning",15,1,0,1782,1,0
"328","1469223","1",11,"1",2015-09-15,"Afternoon",11,1,1,3146,1,0
"329","1469223","1",11,"1",2015-09-16,"Afternoon",13,1,0,3178,1,0
"330","1469223","1",11,"1",2015-09-08,"Morning",2,0,0,NA,1,0
"331","1469223","1",11,"1",2015-09-17,"Morning",14,0,0,NA,1,0
"332","1469223","1",11,"1",2015-09-15,"Morning",10,1,0,342,1,0
"333","1469223","1",11,"1",2015-09-09,"Afternoon",4,1,0,665,1,0
"334","1469229","1",3,"1",2015-09-07,"Morning",1,1,0,794,1,1
"335","1469229","1",3,"1",2015-09-08,"Afternoon",3,0,0,NA,1,1
"336","1469229","1",3,"1",2015-09-08,"Morning",2,0,0,NA,1,1
"337","1469229","1",3,"1",2015-09-09,"Morning",4,0,0,NA,1,1
"338","1469229","1",3,"1",2015-09-10,"Afternoon",6,1,1,864,1,1
"339","1469229","1",3,"1",2015-09-10,"Morning",5,0,0,NA,1,1
"340","1469229","1",3,"1",2015-09-11,"Afternoon",8,1,0,569,1,1
"341","1469229","1",3,"1",2015-09-11,"Morning",7,0,0,NA,1,1
"342","1469229","1",3,"1",2015-09-14,"Afternoon",10,1,1,849,1,1
"343","1469229","1",3,"1",2015-09-14,"Morning",9,1,0,250,1,1
"344","1469229","1",3,"1",2015-09-15,"Afternoon",12,1,0,791,1,1
"345","1469229","1",3,"1",2015-09-15,"Morning",11,1,1,676,1,1
"346","1469229","1",3,"1",2015-09-16,"Morning",13,1,0,522,1,1
"347","1469229","1",3,"1",2015-09-17,"Afternoon",15,1,0,438,0,1
"348","1469229","1",3,"1",2015-09-17,"Morning",14,1,0,231,0,1
"349","1469229","1",3,"1",2015-09-18,"Afternoon",17,1,0,944,0,1
"350","1469229","1",3,"1",2015-09-18,"Morning",16,1,0,478,0,1
"351","1469703","1",5,"1",2015-10-26,"Morning",10,1,0,309,1,1
"352","1469703","1",5,"1",2015-10-27,"Afternoon",13,1,0,185,0,1
"353","1469703","1",5,"1",2015-10-20,"Afternoon",3,1,0,419,1,1
"354","1469703","1",5,"1",2015-10-20,"Morning",2,0,0,NA,1,1
"355","1469703","1",5,"1",2015-10-21,"Afternoon",5,1,0,162,1,1
"356","1469703","1",5,"1",2015-10-19,"Morning",1,1,0,280,1,1
"357","1469703","1",5,"1",2015-10-23,"Morning",8,1,0,79,1,1
"358","1469703","1",5,"1",2015-10-26,"Afternoon",11,1,0,331,0,1
"359","1469703","1",5,"1",2015-10-28,"Morning",14,1,0,24,0,1
"360","1469703","1",5,"1",2015-10-29,"Afternoon",17,1,0,93,0,1
"361","1469703","1",5,"1",2015-10-27,"Morning",12,0,0,NA,0,1
"362","1469703","1",5,"1",2015-10-28,"Afternoon",15,0,0,NA,0,1
"363","1469703","1",5,"1",2015-10-22,"Afternoon",7,1,0,124,1,1
"364","1469703","1",5,"1",2015-10-22,"Morning",6,1,0,81,1,1
"365","1469703","1",5,"1",2015-10-29,"Morning",16,0,0,NA,0,1
"366","1469703","1",5,"1",2015-10-21,"Morning",4,0,0,NA,1,1
"367","1469703","1",5,"1",2015-10-30,"Afternoon",19,0,0,NA,0,1
"368","1469703","1",5,"1",2015-10-30,"Morning",18,1,0,213,0,1
"369","1469703","1",5,"1",2015-10-23,"Afternoon",9,1,0,311,1,1
"370","1470760","2",5,"0",2015-11-12,"Afternoon",2,1,0,123,1,0
"371","1470760","2",5,"0",2015-11-17,"Morning",11,0,0,NA,1,0
"372","1470760","2",5,"0",2015-11-13,"Morning",3,0,0,NA,1,0
"373","1470760","2",5,"0",2015-11-14,"Afternoon",6,1,0,119,1,0
"374","1470760","2",5,"0",2015-11-17,"Afternoon",12,1,0,476,1,0
"375","1470760","2",5,"0",2015-11-18,"Afternoon",14,1,0,313,1,0
"376","1470760","2",5,"0",2015-11-15,"Morning",7,1,0,150,1,0
"377","1470760","2",5,"0",2015-11-16,"Afternoon",10,1,0,148,1,0
"378","1470760","2",5,"0",2015-11-12,"Morning",1,0,0,NA,1,0
"379","1470760","2",5,"0",2015-11-18,"Morning",13,0,0,NA,1,0
"380","1470760","2",5,"0",2015-11-13,"Afternoon",4,1,0,188,1,0
"381","1470760","2",5,"0",2015-11-19,"Morning",15,0,0,NA,1,0
"382","1470760","2",5,"0",2015-11-16,"Morning",9,0,0,NA,1,0
"383","1470760","2",5,"0",2015-11-14,"Morning",5,0,0,NA,1,0
"384","1470760","2",5,"0",2015-11-15,"Afternoon",8,0,0,NA,1,0
"385","1470760","2",5,"0",2015-11-20,"Morning",16,1,0,127,1,0
"386","1470760","2",5,"0",2015-11-20,"Afternoon",17,1,0,1981,1,0
"387","1470760","2",5,"0",2015-11-21,"Morning",18,1,0,449,1,0
"388","1470760","2",5,"0",2015-11-21,"Afternoon",19,0,0,NA,1,0
"389","3368899","1",19,"0",2015-09-07,"Afternoon",2,1,1,1344,1,0
"390","3368899","1",19,"0",2015-09-08,"Morning",3,0,0,NA,1,0
"391","3368899","1",19,"0",2015-09-14,"Afternoon",9,0,0,NA,1,0
"392","3368899","1",19,"0",2015-09-08,"Afternoon",4,1,0,1206,1,0
"393","3368899","1",19,"0",2015-09-11,"Morning",7,0,0,NA,1,0
"394","3368899","1",19,"0",2015-09-14,"Morning",8,0,0,NA,1,0
"395","3368899","1",19,"0",2015-09-07,"Morning",1,1,0,2463,1,0
"396","3368899","1",19,"0",2015-09-15,"Morning",10,0,0,NA,1,0
"397","3368899","1",19,"0",2015-09-16,"Morning",12,1,0,821,1,0
"398","3368899","1",19,"0",2015-09-10,"Afternoon",6,0,0,NA,1,0
"399","3368899","1",19,"0",2015-09-10,"Morning",5,0,0,NA,1,0
"400","3368899","1",19,"0",2015-09-18,"Morning",14,1,0,682,1,0
"401","3368899","1",19,"0",2015-09-17,"Morning",13,0,0,NA,1,0
"402","3368899","1",19,"0",2015-09-15,"Afternoon",11,0,0,NA,1,0
"403","3368899","1",19,"0",2015-09-18,"Afternoon",15,1,1,1079,1,0
"404","3369769","2",2,"1",2015-11-15,"Morning",7,1,0,201,1,1
"405","3369769","2",2,"1",2015-11-17,"Afternoon",12,1,0,125,1,1
"406","3369769","2",2,"1",2015-11-19,"Afternoon",16,1,0,206,0,1
"407","3369769","2",2,"1",2015-11-19,"Morning",15,0,0,NA,0,1
"408","3369769","2",2,"1",2015-11-14,"Afternoon",6,1,0,109,1,1
"409","3369769","2",2,"1",2015-11-13,"Morning",3,0,0,NA,1,1
"410","3369769","2",2,"1",2015-11-14,"Morning",5,0,0,NA,1,1
"411","3369769","2",2,"1",2015-11-15,"Afternoon",8,1,0,159,1,1
"412","3369769","2",2,"1",2015-11-13,"Afternoon",4,0,0,NA,1,1
"413","3369769","2",2,"1",2015-11-18,"Afternoon",14,1,0,66,0,1
"414","3369769","2",2,"1",2015-11-18,"Morning",13,1,0,44,1,1
"415","3369769","2",2,"1",2015-11-16,"Afternoon",10,1,0,56,1,1
"416","3369769","2",2,"1",2015-11-17,"Morning",11,0,0,NA,1,1
"417","3369769","2",2,"1",2015-11-21,"Afternoon",20,1,0,404,0,1
"418","3369769","2",2,"1",2015-11-21,"Morning",19,1,0,140,0,1
"419","3369769","2",2,"1",2015-11-12,"Morning",1,0,0,NA,1,1
"420","3369769","2",2,"1",2015-11-12,"Afternoon",2,1,0,965,1,1
"421","3369769","2",2,"1",2015-11-16,"Morning",9,1,0,111,1,1
"422","3369769","2",2,"1",2015-11-20,"Morning",17,0,0,NA,0,1
"423","3369769","2",2,"1",2015-11-20,"Afternoon",18,1,0,79,0,1
"424","3371239","2",8,"0",2015-11-14,"Morning",5,1,0,334,1,0
"425","3371239","2",8,"0",2015-11-16,"Afternoon",10,0,0,NA,1,0
"426","3371239","2",8,"0",2015-11-16,"Morning",9,0,0,NA,1,0
"427","3371239","2",8,"0",2015-11-17,"Morning",11,1,0,289,1,0
"428","3371239","2",8,"0",2015-11-18,"Afternoon",14,1,0,2153,1,0
"429","3371239","2",8,"0",2015-11-18,"Morning",13,0,0,NA,1,0
"430","3371239","2",8,"0",2015-11-17,"Afternoon",12,1,0,550,1,0
"431","3371239","2",8,"0",2015-11-20,"Afternoon",17,0,0,NA,1,0
"432","3371239","2",8,"0",2015-11-20,"Morning",16,1,0,171,1,0
"433","3371239","2",8,"0",2015-11-21,"Afternoon",19,0,0,NA,1,0
"434","3371239","2",8,"0",2015-11-21,"Morning",18,0,0,NA,1,0
"435","3371239","2",8,"0",2015-11-15,"Afternoon",8,1,0,2120,1,0
"436","3371239","2",8,"0",2015-11-15,"Morning",7,0,0,NA,1,0
"437","3371239","2",8,"0",2015-11-12,"Morning",1,0,0,NA,1,0
"438","3371239","2",8,"0",2015-11-13,"Afternoon",4,1,0,568,1,0
"439","3371239","2",8,"0",2015-11-19,"Morning",15,0,0,NA,1,0
"440","3371239","2",8,"0",2015-11-12,"Afternoon",2,1,0,282,1,0
"441","3371239","2",8,"0",2015-11-13,"Morning",3,0,0,NA,1,0
"442","3371239","2",8,"0",2015-11-14,"Afternoon",6,1,0,254,1,0
"443","3371916","2",10,"0",2015-11-21,"Morning",19,0,0,NA,1,0
"444","3371916","2",10,"0",2015-11-19,"Morning",15,0,0,NA,1,0
"445","3371916","2",10,"0",2015-11-20,"Afternoon",18,1,0,84,1,0
"446","3371916","2",10,"0",2015-11-20,"Morning",17,1,0,137,1,0
"447","3371916","2",10,"0",2015-11-21,"Afternoon",20,1,0,160,1,0
"448","3371916","2",10,"0",2015-11-14,"Morning",5,1,0,130,1,0
"449","3371916","2",10,"0",2015-11-15,"Afternoon",8,0,0,NA,1,0
"450","3371916","2",10,"0",2015-11-15,"Morning",7,0,0,NA,1,0
"451","3371916","2",10,"0",2015-11-16,"Afternoon",10,1,0,159,1,0
"452","3371916","2",10,"0",2015-11-16,"Morning",9,0,0,NA,1,0
"453","3371916","2",10,"0",2015-11-17,"Afternoon",12,1,0,641,1,0
"454","3371916","2",10,"0",2015-11-17,"Morning",11,0,0,NA,1,0
"455","3371916","2",10,"0",2015-11-18,"Morning",13,1,0,436,1,0
"456","3371916","2",10,"0",2015-11-19,"Afternoon",16,1,0,349,1,0
"457","3371916","2",10,"0",2015-11-12,"Afternoon",2,1,0,133,1,0
"458","3371916","2",10,"0",2015-11-12,"Morning",1,0,0,NA,1,0
"459","3371916","2",10,"0",2015-11-13,"Afternoon",4,1,0,366,1,0
"460","3371916","2",10,"0",2015-11-13,"Morning",3,0,0,NA,1,0
"461","3371916","2",10,"0",2015-11-14,"Afternoon",6,1,0,123,1,0
"462","3371916","2",10,"0",2015-11-18,"Afternoon",14,1,0,535,1,0
"463","3372126","2",1,"1",2015-11-14,"Afternoon",6,0,0,NA,1,0
"464","3372126","2",1,"1",2015-11-15,"Morning",7,1,0,236,1,0
"465","3372126","2",1,"1",2015-11-13,"Morning",3,0,0,NA,1,0
"466","3372126","2",1,"1",2015-11-12,"Morning",1,0,0,NA,1,0
"467","3372126","2",1,"1",2015-11-15,"Afternoon",8,1,0,769,1,0
"468","3372126","2",1,"1",2015-11-18,"Afternoon",14,1,0,1073,1,0
"469","3372126","2",1,"1",2015-11-17,"Afternoon",12,1,0,870,1,0
"470","3372126","2",1,"1",2015-11-16,"Morning",9,1,0,62,1,0
"471","3372126","2",1,"1",2015-11-20,"Morning",17,1,0,161,1,0
"472","3372126","2",1,"1",2015-11-16,"Afternoon",10,1,0,272,1,0
"473","3372126","2",1,"1",2015-11-12,"Afternoon",2,1,0,298,1,0
"474","3372126","2",1,"1",2015-11-13,"Afternoon",4,1,0,963,1,0
"475","3372126","2",1,"1",2015-11-17,"Morning",11,0,0,NA,1,0
"476","3372126","2",1,"1",2015-11-19,"Morning",15,0,0,NA,1,0
"477","3372126","2",1,"1",2015-11-21,"Afternoon",20,0,0,NA,1,0
"478","3372126","2",1,"1",2015-11-14,"Morning",5,0,0,NA,1,0
"479","3372126","2",1,"1",2015-11-19,"Afternoon",16,1,0,247,1,0
"480","3372126","2",1,"1",2015-11-21,"Morning",19,1,0,265,1,0
"481","3372126","2",1,"1",2015-11-18,"Morning",13,0,0,NA,1,0
"482","3372126","2",1,"1",2015-11-20,"Afternoon",18,1,0,664,1,0
"483","3374160","2",4,"1",2015-11-13,"Afternoon",3,1,0,2765,1,0
"484","3374160","2",4,"1",2015-11-17,"Afternoon",11,0,0,NA,1,0
"485","3374160","2",4,"1",2015-11-21,"Afternoon",19,1,0,980,1,0
"486","3374160","2",4,"1",2015-11-15,"Afternoon",7,0,0,NA,1,0
"487","3374160","2",4,"1",2015-11-15,"Morning",6,0,0,NA,1,0
"488","3374160","2",4,"1",2015-11-16,"Morning",8,1,0,1112,1,0
"489","3374160","2",4,"1",2015-11-20,"Morning",16,1,0,835,1,0
"490","3374160","2",4,"1",2015-11-12,"Morning",1,1,0,816,1,0
"491","3374160","2",4,"1",2015-11-18,"Afternoon",13,0,0,NA,1,0
"492","3374160","2",4,"1",2015-11-13,"Morning",2,1,0,80,1,0
"493","3374160","2",4,"1",2015-11-21,"Morning",18,1,0,1296,1,0
"494","3374160","2",4,"1",2015-11-14,"Morning",4,1,0,620,1,0
"495","3374160","2",4,"1",2015-11-19,"Morning",14,0,0,NA,1,0
"496","3374160","2",4,"1",2015-11-20,"Afternoon",17,0,0,NA,1,0
"497","3374160","2",4,"1",2015-11-14,"Afternoon",5,1,0,1101,1,0
"498","3374160","2",4,"1",2015-11-18,"Morning",12,0,0,NA,1,0
"499","3374160","2",4,"1",2015-11-17,"Morning",10,1,0,689,1,0
"500","3374160","2",4,"1",2015-11-16,"Afternoon",9,0,0,NA,1,0
"501","3374160","2",4,"1",2015-11-19,"Afternoon",15,1,0,3228,1,0
"502","3374264","1",7,"1",2015-10-21,"Morning",5,1,0,129,1,1
"503","3374264","1",7,"1",2015-10-22,"Morning",7,0,0,NA,1,1
"504","3374264","1",7,"1",2015-10-29,"Morning",17,1,0,253,0,1
"505","3374264","1",7,"1",2015-10-23,"Afternoon",10,1,0,173,1,1
"506","3374264","1",7,"1",2015-10-22,"Afternoon",8,1,0,236,1,1
"507","3374264","1",7,"1",2015-10-29,"Afternoon",18,1,0,294,0,1
"508","3374264","1",7,"1",2015-10-26,"Afternoon",12,1,0,459,1,1
"509","3374264","1",7,"1",2015-10-19,"Afternoon",2,1,0,561,1,1
"510","3374264","1",7,"1",2015-10-19,"Morning",1,1,0,133,1,1
"511","3374264","1",7,"1",2015-10-23,"Morning",9,1,0,173,1,1
"512","3374264","1",7,"1",2015-10-20,"Morning",3,1,0,138,1,1
"513","3374264","1",7,"1",2015-10-21,"Afternoon",6,0,0,NA,1,1
"514","3374264","1",7,"1",2015-10-28,"Afternoon",16,1,0,581,0,1
"515","3374264","1",7,"1",2015-10-28,"Morning",15,1,0,462,0,1
"516","3374264","1",7,"1",2015-10-20,"Afternoon",4,0,0,NA,1,1
"517","3374264","1",7,"1",2015-10-30,"Afternoon",20,1,0,186,0,1
"518","3374264","1",7,"1",2015-10-30,"Morning",19,0,0,NA,0,1
"519","3374264","1",7,"1",2015-10-26,"Morning",11,1,0,223,1,1
"520","3374264","1",7,"1",2015-10-27,"Afternoon",14,1,0,870,1,1
"521","3374264","1",7,"1",2015-10-27,"Morning",13,1,0,212,1,1
