"","LizardID","Batch","TubID","Treatment","Date","Time","Trial","Correct","Choose.only.correct.dish","Latency","lt","learnt"
"1","1468460","1",9,"1",2015-08-10,"Morning",1,1,1,1722,1,1
"2","1468460","1",9,"1",2015-08-10,"Afternoon",2,1,1,970,1,1
"3","1468460","1",9,"1",2015-08-11,"Morning",3,1,1,256,1,1
"4","1468460","1",9,"1",2015-08-11,"Afternoon",4,1,1,1180,1,1
"5","1468460","1",9,"1",2015-08-14,"Morning",5,1,0,263,1,1
"6","1468460","1",9,"1",2015-08-14,"Afternoon",6,1,0,726,1,1
"7","1468460","1",9,"1",2015-08-17,"Morning",7,1,1,248,1,1
"8","1468460","1",9,"1",2015-08-17,"Afternoon",8,1,0,2156,1,1
"9","1468460","1",9,"1",2015-08-18,"Morning",9,1,0,333,0,1
"10","1468460","1",9,"1",2015-08-18,"Afternoon",10,1,0,485,0,1
"11","1468460","1",9,"1",2015-08-19,"Morning",11,1,0,1113,0,1
"12","1468460","1",9,"1",2015-08-19,"Afternoon",12,1,0,432,0,1
"13","1468460","1",9,"1",2015-08-20,"Morning",13,1,1,379,0,1
"14","1468460","1",9,"1",2015-08-20,"Afternoon",14,1,0,1024,0,1
"15","1468460","1",9,"1",2015-08-21,"Morning",15,1,1,423,0,1
"16","1468460","1",9,"1",2015-08-21,"Afternoon",16,1,0,280,0,1
"17","1468460","1",9,"1",2015-08-24,"Morning",17,1,0,529,0,1
"18","1468460","1",9,"1",2015-08-24,"Afternoon",18,1,1,801,0,1
"19","1468460","1",9,"1",2015-08-25,"Morning",19,1,1,224,0,1
"20","1468460","1",9,"1",2015-08-25,"Afternoon",20,1,0,967,0,1
"21","1468460","1",9,"1",2015-08-26,"Morning",21,0,0,NA,0,1
"22","1468460","1",9,"1",2015-08-26,"Afternoon",22,0,0,NA,0,1
"23","1468460","1",9,"1",2015-08-27,"Morning",23,0,0,NA,0,1
"24","1468460","1",9,"1",2015-08-27,"Afternoon",24,1,0,787,0,1
"25","1468460","1",9,"1",2015-08-28,"Morning",25,1,0,547,0,1
"26","1468460","1",9,"1",2015-08-28,"Afternoon",26,1,1,602,0,1
"27","1468476","1",15,"0",2015-08-10,"Morning",1,0,0,161,1,1
"28","1468476","1",15,"0",2015-08-10,"Afternoon",2,1,0,150,1,1
"29","1468476","1",15,"0",2015-08-11,"Morning",3,1,0,359,1,1
"30","1468476","1",15,"0",2015-08-11,"Afternoon",4,0,0,NA,1,1
"31","1468476","1",15,"0",2015-08-14,"Morning",5,0,0,NA,1,1
"32","1468476","1",15,"0",2015-08-14,"Afternoon",6,0,0,NA,1,1
"33","1468476","1",15,"0",2015-08-17,"Morning",7,1,0,332,1,1
"34","1468476","1",15,"0",2015-08-17,"Afternoon",8,1,0,473,1,1
"35","1468476","1",15,"0",2015-08-18,"Morning",9,1,0,213,1,1
"36","1468476","1",15,"0",2015-08-18,"Afternoon",10,1,1,88,1,1
"37","1468476","1",15,"0",2015-08-19,"Morning",11,1,0,140,1,1
"38","1468476","1",15,"0",2015-08-19,"Afternoon",12,1,0,165,1,1
"39","1468476","1",15,"0",2015-08-20,"Morning",13,1,0,214,1,1
"40","1468476","1",15,"0",2015-08-20,"Afternoon",14,1,0,155,0,1
"41","1468476","1",15,"0",2015-08-21,"Morning",15,1,0,68,0,1
"42","1468476","1",15,"0",2015-08-21,"Afternoon",16,1,0,66,0,1
"43","1468476","1",15,"0",2015-08-24,"Morning",17,1,1,312,0,1
"44","1468476","1",15,"0",2015-08-24,"Afternoon",18,1,0,145,0,1
"45","1468476","1",15,"0",2015-08-25,"Morning",19,1,1,89,0,1
"46","1468476","1",15,"0",2015-08-25,"Afternoon",20,1,0,393,0,1
"47","1468476","1",15,"0",2015-08-26,"Morning",21,1,0,139,0,1
"48","1468476","1",15,"0",2015-08-26,"Afternoon",22,1,0,323,0,1
"49","1468476","1",15,"0",2015-08-27,"Morning",23,1,0,172,0,1
"50","1468476","1",15,"0",2015-08-27,"Afternoon",24,1,0,70,0,1
"51","1468476","1",15,"0",2015-08-28,"Morning",25,1,0,182,0,1
"52","1468476","1",15,"0",2015-08-28,"Afternoon",26,1,0,149,0,1
"53","1468502","1",4,"1",2015-08-10,"Morning",1,0,0,1651,1,1
"54","1468502","1",4,"1",2015-08-10,"Afternoon",2,1,0,1343,1,1
"55","1468502","1",4,"1",2015-08-11,"Morning",3,1,0,1272,1,1
"56","1468502","1",4,"1",2015-08-11,"Afternoon",4,1,1,719,1,1
"57","1468502","1",4,"1",2015-08-14,"Morning",5,1,0,130,1,1
"58","1468502","1",4,"1",2015-08-14,"Afternoon",6,1,0,848,1,1
"59","1468502","1",4,"1",2015-08-17,"Morning",7,1,0,662,1,1
"60","1468502","1",4,"1",2015-08-17,"Afternoon",8,1,1,575,1,1
"61","1468502","1",4,"1",2015-08-18,"Morning",9,1,1,919,0,1
"62","1468502","1",4,"1",2015-08-18,"Afternoon",10,1,0,652,0,1
"63","1468502","1",4,"1",2015-08-19,"Morning",11,1,1,275,0,1
"64","1468502","1",4,"1",2015-08-19,"Afternoon",12,1,0,526,0,1
"65","1468502","1",4,"1",2015-08-20,"Morning",13,1,1,571,0,1
"66","1468502","1",4,"1",2015-08-20,"Afternoon",14,1,0,740,0,1
"67","1468502","1",4,"1",2015-08-21,"Morning",15,1,0,837,0,1
"68","1468502","1",4,"1",2015-08-21,"Afternoon",16,1,0,587,0,1
"69","1468502","1",4,"1",2015-08-24,"Morning",17,1,1,1019,0,1
"70","1468502","1",4,"1",2015-08-24,"Afternoon",18,1,1,853,0,1
"71","1468502","1",4,"1",2015-08-25,"Morning",19,1,0,877,0,1
"72","1468502","1",4,"1",2015-08-25,"Afternoon",20,1,1,513,0,1
"73","1468502","1",4,"1",2015-08-26,"Morning",21,0,0,NA,0,1
"74","1468502","1",4,"1",2015-08-26,"Afternoon",22,1,0,1175,0,1
"75","1468502","1",4,"1",2015-08-27,"Morning",23,1,0,1268,0,1
"76","1468502","1",4,"1",2015-08-27,"Afternoon",24,0,0,NA,0,1
"77","1468502","1",4,"1",2015-08-28,"Morning",25,1,0,1207,0,1
"78","1468502","1",4,"1",2015-08-28,"Afternoon",26,1,0,949,0,1
"79","1468504","2",7,"0",2015-10-19,"Morning",1,0,0,NA,1,1
"80","1468504","2",7,"0",2015-10-19,"Afternoon",2,1,0,428,1,1
"81","1468504","2",7,"0",2015-10-20,"Morning",3,1,0,74,1,1
"82","1468504","2",7,"0",2015-10-20,"Afternoon",4,0,0,NA,1,1
"83","1468504","2",7,"0",2015-10-21,"Morning",5,1,0,152,1,1
"84","1468504","2",7,"0",2015-10-21,"Afternoon",6,0,0,NA,1,1
"85","1468504","2",7,"0",2015-10-22,"Morning",7,1,0,190,1,1
"86","1468504","2",7,"0",2015-10-22,"Afternoon",8,0,0,NA,1,1
"87","1468504","2",7,"0",2015-10-23,"Morning",9,1,0,61,1,1
"88","1468504","2",7,"0",2015-10-23,"Afternoon",10,0,0,NA,1,1
"89","1468504","2",7,"0",2015-10-26,"Morning",11,1,0,265,1,1
"90","1468504","2",7,"0",2015-10-26,"Afternoon",12,0,0,NA,1,1
"91","1468504","2",7,"0",2015-10-27,"Morning",13,1,0,33,1,1
"92","1468504","2",7,"0",2015-10-27,"Afternoon",14,1,0,382,1,1
"93","1468504","2",7,"0",2015-10-28,"Morning",15,1,0,220,1,1
"94","1468504","2",7,"0",2015-10-28,"Afternoon",16,1,0,346,1,1
"95","1468504","2",7,"0",2015-10-29,"Morning",17,0,0,NA,1,1
"96","1468504","2",7,"0",2015-10-29,"Afternoon",18,1,0,556,1,1
"97","1468504","2",7,"0",2015-10-30,"Morning",19,1,0,211,1,1
"98","1468504","2",7,"0",2015-10-30,"Afternoon",20,1,0,698,1,1
"99","1468504","2",7,"0",2015-11-02,"Morning",21,1,0,292,0,1
"100","1468504","2",7,"0",2015-11-02,"Afternoon",22,1,0,64,0,1
"101","1468504","2",7,"0",2015-11-03,"Morning",23,0,0,NA,0,1
"102","1468504","2",7,"0",2015-11-03,"Afternoon",24,1,0,141,0,1
"103","1468504","2",7,"0",2015-11-04,"Morning",25,1,0,418,0,1
"104","1468504","2",7,"0",2015-11-04,"Afternoon",26,0,0,NA,0,1
"105","1468504","2",7,"0",2015-11-05,"Morning",27,1,0,308,0,1
"106","1468504","2",7,"0",2015-11-05,"Afternoon",28,0,0,NA,0,1
"107","1468504","2",7,"0",2015-11-06,"Morning",29,1,0,247,0,1
"108","1468504","2",7,"0",2015-11-06,"Afternoon",30,1,0,162,0,1
"109","1468506","1",2,"1",2015-08-10,"Morning",1,0,0,NA,1,1
"110","1468506","1",2,"1",2015-08-10,"Afternoon",2,1,0,169,1,1
"111","1468506","1",2,"1",2015-08-11,"Morning",3,1,0,244,1,1
"112","1468506","1",2,"1",2015-08-11,"Afternoon",4,1,0,143,1,1
"113","1468506","1",2,"1",2015-08-14,"Morning",5,1,1,91,1,1
"114","1468506","1",2,"1",2015-08-14,"Afternoon",6,1,0,163,1,1
"115","1468506","1",2,"1",2015-08-17,"Morning",7,1,0,31,1,1
"116","1468506","1",2,"1",2015-08-17,"Afternoon",8,1,0,99,1,1
"117","1468506","1",2,"1",2015-08-18,"Morning",9,1,1,162,0,1
"118","1468506","1",2,"1",2015-08-18,"Afternoon",10,1,0,54,0,1
"119","1468506","1",2,"1",2015-08-19,"Morning",11,1,0,78,0,1
"120","1468506","1",2,"1",2015-08-19,"Afternoon",12,1,0,69,0,1
"121","1468506","1",2,"1",2015-08-20,"Morning",13,0,0,NA,0,1
"122","1468506","1",2,"1",2015-08-20,"Afternoon",14,1,0,45,0,1
"123","1468506","1",2,"1",2015-08-21,"Morning",15,1,0,175,0,1
"124","1468506","1",2,"1",2015-08-21,"Afternoon",16,1,0,192,0,1
"125","1468506","1",2,"1",2015-08-24,"Morning",17,1,1,59,0,1
"126","1468506","1",2,"1",2015-08-24,"Afternoon",18,1,1,43,0,1
"127","1468506","1",2,"1",2015-08-25,"Morning",19,1,1,202,0,1
"128","1468506","1",2,"1",2015-08-25,"Afternoon",20,1,0,292,0,1
"129","1468506","1",2,"1",2015-08-26,"Morning",21,0,0,NA,0,1
"130","1468506","1",2,"1",2015-08-26,"Afternoon",22,0,0,NA,0,1
"131","1468506","1",2,"1",2015-08-27,"Morning",23,1,1,92,0,1
"132","1468506","1",2,"1",2015-08-27,"Afternoon",24,1,0,121,0,1
"133","1468506","1",2,"1",2015-08-28,"Morning",25,1,0,117,0,1
"134","1468506","1",2,"1",2015-08-28,"Afternoon",26,1,0,66,0,1
"135","1468509","1",8,"1",2015-08-17,"Morning",1,1,1,334,1,1
"136","1468509","1",8,"1",2015-08-17,"Afternoon",2,1,0,477,1,1
"137","1468509","1",8,"1",2015-08-18,"Morning",3,1,1,344,1,1
"138","1468509","1",8,"1",2015-08-18,"Afternoon",4,1,1,154,1,1
"139","1468509","1",8,"1",2015-08-19,"Morning",5,1,0,273,1,1
"140","1468509","1",8,"1",2015-08-19,"Afternoon",6,1,0,157,1,1
"141","1468509","1",8,"1",2015-08-20,"Morning",7,1,0,148,1,1
"142","1468509","1",8,"1",2015-08-20,"Afternoon",8,0,0,NA,1,1
"143","1468509","1",8,"1",2015-08-21,"Morning",9,1,0,291,0,1
"144","1468509","1",8,"1",2015-08-21,"Afternoon",10,1,0,184,0,1
"145","1468509","1",8,"1",2015-08-24,"Afternoon",11,1,1,239,0,1
"146","1468509","1",8,"1",2015-08-25,"Morning",12,1,1,44,0,1
"147","1468509","1",8,"1",2015-08-25,"Afternoon",13,1,1,84,0,1
"148","1468509","1",8,"1",2015-08-26,"Morning",14,0,0,NA,0,1
"149","1468509","1",8,"1",2015-08-26,"Afternoon",15,1,0,167,0,1
"150","1468509","1",8,"1",2015-08-27,"Morning",16,1,0,168,0,1
"151","1468509","1",8,"1",2015-08-27,"Afternoon",17,0,0,NA,0,1
"152","1468509","1",8,"1",2015-08-28,"Morning",18,0,0,NA,0,1
"153","1468509","1",8,"1",2015-08-28,"Afternoon",19,1,0,130,0,1
"154","1468509","1",8,"1",2015-08-31,"Morning",20,1,0,382,0,1
"155","1468509","1",8,"1",2015-09-01,"Morning",21,1,0,402,0,1
"156","1468509","1",8,"1",2015-09-01,"Afternoon",22,1,0,388,0,1
"157","1468509","1",8,"1",2015-09-02,"Morning",23,0,0,NA,0,1
"158","1468509","1",8,"1",2015-09-02,"Afternoon",24,0,0,NA,0,1
"159","1468509","1",8,"1",2015-09-03,"Morning",25,1,0,354,0,1
"160","1468509","1",8,"1",2015-09-04,"Morning",26,1,0,147,0,1
"161","1468509","1",8,"1",2015-09-04,"Afternoon",27,0,0,NA,0,1
"162","1468510","1",6,"1",2015-08-10,"Afternoon",1,0,0,NA,1,1
"163","1468510","1",6,"1",2015-08-11,"Morning",2,0,0,NA,1,1
"164","1468510","1",6,"1",2015-08-14,"Morning",3,0,0,NA,1,1
"165","1468510","1",6,"1",2015-08-17,"Morning",4,1,0,206,1,1
"166","1468510","1",6,"1",2015-08-18,"Morning",5,1,0,308,1,1
"167","1468510","1",6,"1",2015-08-18,"Afternoon",6,1,0,292,1,1
"168","1468510","1",6,"1",2015-08-19,"Morning",7,1,0,137,1,1
"169","1468510","1",6,"1",2015-08-19,"Afternoon",8,1,0,126,1,1
"170","1468510","1",6,"1",2015-08-20,"Morning",9,1,0,119,1,1
"171","1468510","1",6,"1",2015-08-20,"Afternoon",10,1,0,89,1,1
"172","1468510","1",6,"1",2015-08-21,"Morning",11,1,0,52,0,1
"173","1468510","1",6,"1",2015-08-21,"Afternoon",12,0,0,NA,0,1
"174","1468510","1",6,"1",2015-08-24,"Morning",13,1,1,997,0,1
"175","1468510","1",6,"1",2015-08-24,"Afternoon",14,1,0,1075,0,1
"176","1468510","1",6,"1",2015-08-25,"Morning",15,1,1,899,0,1
"177","1468510","1",6,"1",2015-08-25,"Afternoon",16,1,0,554,0,1
"178","1468510","1",6,"1",2015-08-26,"Morning",17,1,0,850,0,1
"179","1468510","1",6,"1",2015-08-26,"Afternoon",18,1,0,981,0,1
"180","1468510","1",6,"1",2015-08-27,"Morning",19,1,1,698,0,1
"181","1468510","1",6,"1",2015-08-27,"Afternoon",20,1,0,1460,0,1
"182","1468510","1",6,"1",2015-08-28,"Morning",21,1,0,544,0,1
"183","1468510","1",6,"1",2015-08-28,"Afternoon",22,0,0,NA,0,1
"184","1468515","1",10,"1",2015-08-10,"Morning",1,1,0,19,1,1
"185","1468515","1",10,"1",2015-08-10,"Afternoon",2,0,0,NA,1,1
"186","1468515","1",10,"1",2015-08-11,"Morning",3,1,0,270,1,1
"187","1468515","1",10,"1",2015-08-11,"Afternoon",4,1,0,72,1,1
"188","1468515","1",10,"1",2015-08-14,"Morning",5,1,0,81,1,1
"189","1468515","1",10,"1",2015-08-14,"Afternoon",6,1,0,21,1,1
"190","1468515","1",10,"1",2015-08-17,"Morning",7,1,0,161,1,1
"191","1468515","1",10,"1",2015-08-17,"Afternoon",8,1,0,565,1,1
"192","1468515","1",10,"1",2015-08-18,"Morning",9,1,0,47,0,1
"193","1468515","1",10,"1",2015-08-18,"Afternoon",10,1,0,156,0,1
"194","1468515","1",10,"1",2015-08-19,"Morning",11,1,0,168,0,1
"195","1468515","1",10,"1",2015-08-19,"Afternoon",12,1,0,160,0,1
"196","1468515","1",10,"1",2015-08-20,"Morning",13,1,0,NA,0,1
"197","1468515","1",10,"1",2015-08-20,"Afternoon",14,1,0,272,0,1
"198","1468515","1",10,"1",2015-08-21,"Morning",15,0,0,NA,0,1
"199","1468515","1",10,"1",2015-08-21,"Afternoon",16,1,0,97,0,1
"200","1468515","1",10,"1",2015-08-24,"Morning",17,1,1,165,0,1
"201","1468515","1",10,"1",2015-08-24,"Afternoon",18,1,1,103,0,1
"202","1468515","1",10,"1",2015-08-25,"Morning",19,1,1,107,0,1
"203","1468515","1",10,"1",2015-08-25,"Afternoon",20,1,0,142,0,1
"204","1468515","1",10,"1",2015-08-26,"Morning",21,0,0,NA,0,1
"205","1468515","1",10,"1",2015-08-26,"Afternoon",22,0,0,NA,0,1
"206","1468515","1",10,"1",2015-08-27,"Morning",23,1,0,66,0,1
"207","1468515","1",10,"1",2015-08-27,"Afternoon",24,1,0,86,0,1
"208","1468515","1",10,"1",2015-08-28,"Morning",25,1,0,193,0,1
"209","1468515","1",10,"1",2015-08-28,"Afternoon",26,1,0,106,0,1
"210","1468516","2",12,"0",2015-10-19,"Morning",1,1,0,82,1,1
"211","1468516","2",12,"0",2015-10-19,"Afternoon",2,1,0,52,1,1
"212","1468516","2",12,"0",2015-10-20,"Morning",3,1,1,47,1,1
"213","1468516","2",12,"0",2015-10-20,"Afternoon",4,0,0,NA,1,1
"214","1468516","2",12,"0",2015-10-21,"Morning",5,0,0,NA,1,1
"215","1468516","2",12,"0",2015-10-21,"Afternoon",6,1,0,380,1,1
"216","1468516","2",12,"0",2015-10-22,"Morning",7,1,0,141,1,1
"217","1468516","2",12,"0",2015-10-22,"Afternoon",8,1,1,69,1,1
"218","1468516","2",12,"0",2015-10-23,"Morning",9,1,0,136,1,1
"219","1468516","2",12,"0",2015-10-23,"Afternoon",10,1,0,51,1,1
"220","1468516","2",12,"0",2015-10-26,"Morning",11,1,0,261,1,1
"221","1468516","2",12,"0",2015-10-26,"Afternoon",12,1,0,141,1,1
"222","1468516","2",12,"0",2015-10-27,"Morning",13,1,0,198,0,1
"223","1468516","2",12,"0",2015-10-27,"Afternoon",14,0,0,NA,0,1
"224","1468516","2",12,"0",2015-10-28,"Morning",15,1,0,39,0,1
"225","1468516","2",12,"0",2015-10-28,"Afternoon",16,1,0,66,0,1
"226","1468516","2",12,"0",2015-10-29,"Morning",17,1,0,44,0,1
"227","1468516","2",12,"0",2015-10-29,"Afternoon",18,1,0,327,0,1
"228","1468516","2",12,"0",2015-10-30,"Morning",19,1,0,63,0,1
"229","1468516","2",12,"0",2015-10-30,"Afternoon",20,1,0,168,0,1
"230","1468516","2",12,"0",2015-11-02,"Morning",21,1,0,202,0,1
"231","1468516","2",12,"0",2015-11-02,"Afternoon",22,1,0,242,0,1
"232","1468516","2",12,"0",2015-11-03,"Morning",23,1,0,159,0,1
"233","1468516","2",12,"0",2015-11-03,"Afternoon",24,1,0,296,0,1
"234","1468516","2",12,"0",2015-11-04,"Morning",25,1,0,21,0,1
"235","1468516","2",12,"0",2015-11-04,"Afternoon",26,1,0,23,0,1
"236","1468516","2",12,"0",2015-11-05,"Morning",27,1,0,33,0,1
"237","1468516","2",12,"0",2015-11-05,"Afternoon",28,0,0,NA,0,1
"238","1468516","2",12,"0",2015-11-06,"Morning",29,1,0,35,0,1
"239","1468516","2",12,"0",2015-11-06,"Afternoon",30,0,0,NA,0,1
"240","1468529","2",9,"0",2015-10-19,"Morning",1,1,0,102,1,1
"241","1468529","2",9,"0",2015-10-19,"Afternoon",2,0,0,NA,1,1
"242","1468529","2",9,"0",2015-10-20,"Morning",3,1,1,171,1,1
"243","1468529","2",9,"0",2015-10-20,"Afternoon",4,0,0,NA,1,1
"244","1468529","2",9,"0",2015-10-21,"Morning",5,1,0,191,1,1
"245","1468529","2",9,"0",2015-10-21,"Afternoon",6,1,0,577,1,1
"246","1468529","2",9,"0",2015-10-22,"Morning",7,1,0,111,1,1
"247","1468529","2",9,"0",2015-10-22,"Afternoon",8,1,0,1274,1,1
"248","1468529","2",9,"0",2015-10-23,"Morning",9,1,1,247,1,1
"249","1468529","2",9,"0",2015-10-23,"Afternoon",10,0,0,NA,1,1
"250","1468529","2",9,"0",2015-10-26,"Morning",11,0,0,NA,1,1
"251","1468529","2",9,"0",2015-10-26,"Afternoon",12,1,0,51,1,1
"252","1468529","2",9,"0",2015-10-27,"Morning",13,0,0,NA,1,1
"253","1468529","2",9,"0",2015-10-27,"Afternoon",14,1,0,133,1,1
"254","1468529","2",9,"0",2015-10-28,"Morning",15,1,0,187,1,1
"255","1468529","2",9,"0",2015-10-28,"Afternoon",16,1,0,161,1,1
"256","1468529","2",9,"0",2015-10-29,"Morning",17,1,0,108,1,1
"257","1468529","2",9,"0",2015-10-29,"Afternoon",18,0,0,NA,1,1
"258","1468529","2",9,"0",2015-10-30,"Morning",19,1,0,165,1,1
"259","1468529","2",9,"0",2015-10-30,"Afternoon",20,1,0,308,1,1
"260","1468529","2",9,"0",2015-11-02,"Morning",21,1,0,67,1,1
"261","1468529","2",9,"0",2015-11-02,"Afternoon",22,1,0,233,0,1
"262","1468529","2",9,"0",2015-11-03,"Morning",23,0,0,NA,0,1
"263","1468529","2",9,"0",2015-11-03,"Afternoon",24,1,0,217,0,1
"264","1468529","2",9,"0",2015-11-04,"Morning",25,1,0,343,0,1
"265","1468529","2",9,"0",2015-11-04,"Afternoon",26,1,0,248,0,1
"266","1468529","2",9,"0",2015-11-05,"Morning",27,1,0,137,0,1
"267","1468529","2",9,"0",2015-11-05,"Afternoon",28,1,0,504,0,1
"268","1468529","2",9,"0",2015-11-06,"Morning",29,1,0,58,0,1
"269","1468529","2",9,"0",2015-11-06,"Afternoon",30,1,0,307,0,1
"270","1468532","1",16,"0",2015-08-10,"Morning",1,1,0,87,1,1
"271","1468532","1",16,"0",2015-08-10,"Afternoon",2,1,0,100,1,1
"272","1468532","1",16,"0",2015-08-11,"Morning",3,0,0,NA,1,1
"273","1468532","1",16,"0",2015-08-11,"Afternoon",4,1,0,46,1,1
"274","1468532","1",16,"0",2015-08-14,"Morning",5,1,0,72,1,1
"275","1468532","1",16,"0",2015-08-14,"Afternoon",6,1,1,177,1,1
"276","1468532","1",16,"0",2015-08-17,"Morning",7,1,0,112,1,1
"277","1468532","1",16,"0",2015-08-17,"Afternoon",8,1,0,269,1,1
"278","1468532","1",16,"0",2015-08-18,"Morning",9,1,1,85,0,1
"279","1468532","1",16,"0",2015-08-18,"Afternoon",10,1,0,288,0,1
"280","1468532","1",16,"0",2015-08-19,"Morning",11,1,1,87,0,1
"281","1468532","1",16,"0",2015-08-19,"Afternoon",12,0,0,NA,0,1
"282","1468532","1",16,"0",2015-08-20,"Morning",13,1,0,18,0,1
"283","1468532","1",16,"0",2015-08-20,"Afternoon",14,1,1,73,0,1
"284","1468532","1",16,"0",2015-08-21,"Morning",15,1,0,30,0,1
"285","1468532","1",16,"0",2015-08-21,"Afternoon",16,1,0,137,0,1
"286","1468532","1",16,"0",2015-08-24,"Morning",17,1,1,36,0,1
"287","1468532","1",16,"0",2015-08-24,"Afternoon",18,1,1,1363,0,1
"288","1468532","1",16,"0",2015-08-25,"Morning",19,1,1,174,0,1
"289","1468532","1",16,"0",2015-08-25,"Afternoon",20,1,0,1407,0,1
"290","1468532","1",16,"0",2015-08-26,"Morning",21,1,0,155,0,1
"291","1468532","1",16,"0",2015-08-26,"Afternoon",22,0,0,NA,0,1
"292","1468532","1",16,"0",2015-08-27,"Morning",23,1,1,131,0,1
"293","1468532","1",16,"0",2015-08-27,"Afternoon",24,1,0,177,0,1
"294","1468532","1",16,"0",2015-08-28,"Morning",25,1,0,142,0,1
"295","1468532","1",16,"0",2015-08-28,"Afternoon",26,1,0,52,0,1
"296","1468535","1",12,"0",2015-08-10,"Morning",1,1,0,261,1,1
"297","1468535","1",12,"0",2015-08-10,"Afternoon",2,1,0,250,1,1
"298","1468535","1",12,"0",2015-08-11,"Morning",3,1,1,161,1,1
"299","1468535","1",12,"0",2015-08-11,"Afternoon",4,1,0,557,1,1
"300","1468535","1",12,"0",2015-08-14,"Morning",5,1,0,206,1,1
"301","1468535","1",12,"0",2015-08-14,"Afternoon",6,0,0,NA,1,1
"302","1468535","1",12,"0",2015-08-17,"Morning",7,0,0,NA,1,1
"303","1468535","1",12,"0",2015-08-17,"Afternoon",8,1,0,193,1,1
"304","1468535","1",12,"0",2015-08-18,"Morning",9,1,0,165,1,1
"305","1468535","1",12,"0",2015-08-18,"Afternoon",10,1,0,54,1,1
"306","1468535","1",12,"0",2015-08-19,"Morning",11,1,0,29,1,1
"307","1468535","1",12,"0",2015-08-19,"Afternoon",12,1,1,333,1,1
"308","1468535","1",12,"0",2015-08-20,"Morning",13,1,0,213,1,1
"309","1468535","1",12,"0",2015-08-20,"Afternoon",14,1,0,134,1,1
"310","1468535","1",12,"0",2015-08-21,"Morning",15,0,0,NA,0,1
"311","1468535","1",12,"0",2015-08-21,"Afternoon",16,1,0,153,0,1
"312","1468535","1",12,"0",2015-08-24,"Morning",17,1,0,125,0,1
"313","1468535","1",12,"0",2015-08-24,"Afternoon",18,1,1,207,0,1
"314","1468535","1",12,"0",2015-08-25,"Morning",19,1,1,54,0,1
"315","1468535","1",12,"0",2015-08-25,"Afternoon",20,1,0,227,0,1
"316","1468535","1",12,"0",2015-08-26,"Morning",21,1,0,73,0,1
"317","1468535","1",12,"0",2015-08-26,"Afternoon",22,0,0,NA,0,1
"318","1468535","1",12,"0",2015-08-27,"Morning",23,1,0,102,0,1
"319","1468535","1",12,"0",2015-08-27,"Afternoon",24,1,0,198,0,1
"320","1468535","1",12,"0",2015-08-28,"Morning",25,1,0,76,0,1
"321","1468535","1",12,"0",2015-08-28,"Afternoon",26,0,0,NA,0,1
"322","1468538","2",11,"0",2015-10-19,"Morning",1,0,0,NA,1,1
"323","1468538","2",11,"0",2015-10-19,"Afternoon",2,0,0,161,1,1
"324","1468538","2",11,"0",2015-10-20,"Morning",3,0,0,NA,1,1
"325","1468538","2",11,"0",2015-10-20,"Afternoon",4,1,0,305,1,1
"326","1468538","2",11,"0",2015-10-21,"Morning",5,1,0,225,1,1
"327","1468538","2",11,"0",2015-10-21,"Afternoon",6,1,0,898,1,1
"328","1468538","2",11,"0",2015-10-22,"Morning",7,0,0,NA,1,1
"329","1468538","2",11,"0",2015-10-22,"Afternoon",8,1,0,2410,1,1
"330","1468538","2",11,"0",2015-10-23,"Morning",9,0,0,NA,1,1
"331","1468538","2",11,"0",2015-10-23,"Afternoon",10,1,0,166,1,1
"332","1468538","2",11,"0",2015-10-26,"Morning",11,1,0,223,1,1
"333","1468538","2",11,"0",2015-10-26,"Afternoon",12,1,0,305,1,1
"334","1468538","2",11,"0",2015-10-27,"Morning",13,1,0,153,1,1
"335","1468538","2",11,"0",2015-10-27,"Afternoon",14,1,0,198,1,1
"336","1468538","2",11,"0",2015-10-28,"Morning",15,1,0,620,1,1
"337","1468538","2",11,"0",2015-10-28,"Afternoon",16,1,0,197,0,1
"338","1468538","2",11,"0",2015-10-29,"Morning",17,1,0,363,0,1
"339","1468538","2",11,"0",2015-10-29,"Afternoon",18,0,0,NA,0,1
"340","1468538","2",11,"0",2015-10-30,"Morning",19,1,0,237,0,1
"341","1468538","2",11,"0",2015-10-30,"Afternoon",20,1,0,469,0,1
"342","1468538","2",11,"0",2015-11-02,"Morning",21,0,0,NA,0,1
"343","1468538","2",11,"0",2015-11-02,"Afternoon",22,1,0,449,0,1
"344","1468538","2",11,"0",2015-11-03,"Morning",23,0,0,NA,0,1
"345","1468538","2",11,"0",2015-11-03,"Afternoon",24,1,0,290,0,1
"346","1468538","2",11,"0",2015-11-04,"Afternoon",25,0,0,NA,0,1
"347","1468538","2",11,"0",2015-11-05,"Morning",26,0,0,NA,0,1
"348","1468538","2",11,"0",2015-11-05,"Afternoon",27,1,0,402,0,1
"349","1468538","2",11,"0",2015-11-06,"Morning",28,0,0,NA,0,1
"350","1468538","2",11,"0",2015-11-06,"Afternoon",29,1,0,789,0,1
"351","1468549","1",1,"1",2015-08-10,"Morning",1,1,0,403,1,1
"352","1468549","1",1,"1",2015-08-10,"Afternoon",2,1,0,468,1,1
"353","1468549","1",1,"1",2015-08-11,"Morning",3,1,0,827,1,1
"354","1468549","1",1,"1",2015-08-11,"Afternoon",4,1,0,282,1,1
"355","1468549","1",1,"1",2015-08-14,"Morning",5,1,1,661,1,1
"356","1468549","1",1,"1",2015-08-14,"Afternoon",6,1,0,474,1,1
"357","1468549","1",1,"1",2015-08-17,"Morning",7,0,0,NA,1,1
"358","1468549","1",1,"1",2015-08-17,"Afternoon",8,0,0,NA,1,1
"359","1468549","1",1,"1",2015-08-18,"Morning",9,1,0,1062,1,1
"360","1468549","1",1,"1",2015-08-18,"Afternoon",10,1,0,171,1,1
"361","1468549","1",1,"1",2015-08-19,"Morning",11,1,0,766,1,1
"362","1468549","1",1,"1",2015-08-19,"Afternoon",12,1,0,531,1,1
"363","1468549","1",1,"1",2015-08-20,"Morning",13,1,1,713,1,1
"364","1468549","1",1,"1",2015-08-20,"Afternoon",14,1,0,397,1,1
"365","1468549","1",1,"1",2015-08-21,"Morning",15,1,1,449,1,1
"366","1468549","1",1,"1",2015-08-21,"Afternoon",16,1,0,536,0,1
"367","1468549","1",1,"1",2015-08-24,"Morning",17,1,0,142,0,1
"368","1468549","1",1,"1",2015-08-24,"Afternoon",18,1,1,181,0,1
"369","1468549","1",1,"1",2015-08-25,"Morning",19,1,1,194,0,1
"370","1468549","1",1,"1",2015-08-25,"Afternoon",20,0,0,NA,0,1
"371","1468549","1",1,"1",2015-08-26,"Morning",21,1,0,247,0,1
"372","1468549","1",1,"1",2015-08-26,"Afternoon",22,1,0,291,0,1
"373","1468549","1",1,"1",2015-08-27,"Morning",23,0,0,NA,0,1
"374","1468549","1",1,"1",2015-08-27,"Afternoon",24,0,0,NA,0,1
"375","1468549","1",1,"1",2015-08-28,"Morning",25,1,0,318,0,1
"376","1468549","1",1,"1",2015-08-28,"Afternoon",26,0,0,NA,0,1
"377","1469178","2",6,"0",2015-10-19,"Morning",1,0,0,NA,1,1
"378","1469178","2",6,"0",2015-10-19,"Afternoon",2,1,0,297,1,1
"379","1469178","2",6,"0",2015-10-20,"Morning",3,0,0,NA,1,1
"380","1469178","2",6,"0",2015-10-20,"Afternoon",4,0,0,NA,1,1
"381","1469178","2",6,"0",2015-10-21,"Morning",5,1,0,849,1,1
"382","1469178","2",6,"0",2015-10-21,"Afternoon",6,0,0,NA,1,1
"383","1469178","2",6,"0",2015-10-22,"Morning",7,1,0,1347,1,1
"384","1469178","2",6,"0",2015-10-22,"Afternoon",8,0,0,NA,1,1
"385","1469178","2",6,"0",2015-10-23,"Morning",9,0,0,NA,1,1
"386","1469178","2",6,"0",2015-10-23,"Afternoon",10,0,0,NA,1,1
"387","1469178","2",6,"0",2015-10-26,"Morning",11,0,0,NA,1,1
"388","1469178","2",6,"0",2015-10-26,"Afternoon",12,0,0,NA,1,1
"389","1469178","2",6,"0",2015-10-27,"Morning",13,1,0,485,1,1
"390","1469178","2",6,"0",2015-10-27,"Afternoon",14,1,0,479,1,1
"391","1469178","2",6,"0",2015-10-28,"Morning",15,1,0,497,1,1
"392","1469178","2",6,"0",2015-10-28,"Afternoon",16,0,0,NA,1,1
"393","1469178","2",6,"0",2015-10-29,"Morning",17,0,0,NA,1,1
"394","1469178","2",6,"0",2015-10-29,"Afternoon",18,0,0,NA,1,1
"395","1469178","2",6,"0",2015-10-30,"Morning",19,1,0,431,1,1
"396","1469178","2",6,"0",2015-10-30,"Afternoon",20,1,0,500,1,1
"397","1469178","2",6,"0",2015-11-02,"Morning",21,0,0,NA,1,1
"398","1469178","2",6,"0",2015-11-02,"Afternoon",22,1,0,166,1,1
"399","1469178","2",6,"0",2015-11-03,"Morning",23,1,0,743,1,1
"400","1469178","2",6,"0",2015-11-03,"Afternoon",24,1,0,296,1,1
"401","1469178","2",6,"0",2015-11-04,"Morning",25,1,0,113,1,1
"402","1469178","2",6,"0",2015-11-04,"Afternoon",26,1,0,221,1,1
"403","1469178","2",6,"0",2015-11-05,"Morning",27,1,0,148,0,1
"404","1469178","2",6,"0",2015-11-05,"Afternoon",28,1,0,352,0,1
"405","1469178","2",6,"0",2015-11-06,"Morning",29,0,0,NA,0,1
"406","1469178","2",6,"0",2015-11-06,"Afternoon",30,0,0,NA,0,1
"407","1469218","1",14,"0",2015-08-10,"Morning",1,1,0,58,1,1
"408","1469218","1",14,"0",2015-08-10,"Afternoon",2,1,0,141,1,1
"409","1469218","1",14,"0",2015-08-11,"Morning",3,0,0,NA,1,1
"410","1469218","1",14,"0",2015-08-11,"Afternoon",4,1,0,319,1,1
"411","1469218","1",14,"0",2015-08-14,"Morning",5,1,0,161,1,1
"412","1469218","1",14,"0",2015-08-14,"Afternoon",6,1,0,195,1,1
"413","1469218","1",14,"0",2015-08-17,"Morning",7,1,0,280,1,1
"414","1469218","1",14,"0",2015-08-17,"Afternoon",8,1,0,185,1,1
"415","1469218","1",14,"0",2015-08-18,"Morning",9,1,0,236,0,1
"416","1469218","1",14,"0",2015-08-18,"Afternoon",10,1,0,162,0,1
"417","1469218","1",14,"0",2015-08-19,"Morning",11,1,0,147,0,1
"418","1469218","1",14,"0",2015-08-19,"Afternoon",12,1,0,281,0,1
"419","1469218","1",14,"0",2015-08-20,"Morning",13,1,0,246,0,1
"420","1469218","1",14,"0",2015-08-20,"Afternoon",14,1,1,441,0,1
"421","1469218","1",14,"0",2015-08-21,"Morning",15,1,0,163,0,1
"422","1469218","1",14,"0",2015-08-21,"Afternoon",16,1,0,343,0,1
"423","1469218","1",14,"0",2015-08-24,"Morning",17,1,0,183,0,1
"424","1469218","1",14,"0",2015-08-24,"Afternoon",18,1,1,88,0,1
"425","1469218","1",14,"0",2015-08-25,"Morning",19,1,1,106,0,1
"426","1469218","1",14,"0",2015-08-25,"Afternoon",20,1,0,162,0,1
"427","1469218","1",14,"0",2015-08-26,"Morning",21,1,0,148,0,1
"428","1469218","1",14,"0",2015-08-26,"Afternoon",22,1,0,310,0,1
"429","1469218","1",14,"0",2015-08-27,"Morning",23,1,0,233,0,1
"430","1469218","1",14,"0",2015-08-27,"Afternoon",24,1,0,97,0,1
"431","1469218","1",14,"0",2015-08-28,"Morning",25,1,0,184,0,1
"432","1469218","1",14,"0",2015-08-28,"Afternoon",26,1,0,38,0,1
"433","1469222","2",3,"1",2015-10-19,"Morning",1,1,0,620,1,1
"434","1469222","2",3,"1",2015-10-19,"Afternoon",2,1,0,319,1,1
"435","1469222","2",3,"1",2015-10-20,"Morning",3,1,0,65,1,1
"436","1469222","2",3,"1",2015-10-20,"Afternoon",4,1,0,698,1,1
"437","1469222","2",3,"1",2015-10-21,"Morning",5,1,0,510,1,1
"438","1469222","2",3,"1",2015-10-21,"Afternoon",6,1,0,629,1,1
"439","1469222","2",3,"1",2015-10-22,"Morning",7,1,0,45,1,1
"440","1469222","2",3,"1",2015-10-22,"Afternoon",8,1,0,352,1,1
"441","1469222","2",3,"1",2015-10-23,"Morning",9,0,0,NA,0,1
"442","1469222","2",3,"1",2015-10-23,"Afternoon",10,1,0,531,0,1
"443","1469222","2",3,"1",2015-10-26,"Morning",11,1,0,2527,0,1
"444","1469222","2",3,"1",2015-10-26,"Afternoon",12,0,0,NA,0,1
"445","1469222","2",3,"1",2015-10-27,"Morning",13,1,0,53,0,1
"446","1469222","2",3,"1",2015-10-27,"Afternoon",14,1,0,896,0,1
"447","1469222","2",3,"1",2015-10-28,"Morning",15,0,0,NA,0,1
"448","1469222","2",3,"1",2015-10-28,"Afternoon",16,1,0,3051,0,1
"449","1469222","2",3,"1",2015-10-29,"Morning",17,0,0,NA,0,1
"450","1469222","2",3,"1",2015-10-29,"Afternoon",18,0,0,NA,0,1
"451","1469222","2",3,"1",2015-10-30,"Morning",19,1,0,147,0,1
"452","1469222","2",3,"1",2015-10-30,"Afternoon",20,1,0,968,0,1
"453","1469222","2",3,"1",2015-11-02,"Morning",21,0,0,NA,0,1
"454","1469222","2",3,"1",2015-11-02,"Afternoon",22,0,0,NA,0,1
"455","1469222","2",3,"1",2015-11-03,"Morning",23,1,0,1513,0,1
"456","1469222","2",3,"1",2015-11-03,"Afternoon",24,1,0,597,0,1
"457","1469222","2",3,"1",2015-11-04,"Morning",25,1,0,81,0,1
"458","1469222","2",3,"1",2015-11-04,"Afternoon",26,1,0,487,0,1
"459","1469222","2",3,"1",2015-11-05,"Morning",27,0,0,NA,0,1
"460","1469222","2",3,"1",2015-11-05,"Afternoon",28,0,0,NA,0,1
"461","1469222","2",3,"1",2015-11-06,"Morning",29,0,0,NA,0,1
"462","1469222","2",3,"1",2015-11-06,"Afternoon",30,1,0,982,0,1
"463","1469223","1",11,"1",2015-08-10,"Morning",1,1,0,502,1,1
"464","1469223","1",11,"1",2015-08-10,"Afternoon",2,1,0,359,1,1
"465","1469223","1",11,"1",2015-08-11,"Morning",3,1,1,137,1,1
"466","1469223","1",11,"1",2015-08-11,"Afternoon",4,1,0,299,1,1
"467","1469223","1",11,"1",2015-08-14,"Morning",5,1,0,163,1,1
"468","1469223","1",11,"1",2015-08-14,"Afternoon",6,1,0,139,1,1
"469","1469223","1",11,"1",2015-08-17,"Morning",7,1,0,244,1,1
"470","1469223","1",11,"1",2015-08-17,"Afternoon",8,1,1,250,1,1
"471","1469223","1",11,"1",2015-08-18,"Morning",9,1,0,397,0,1
"472","1469223","1",11,"1",2015-08-18,"Afternoon",10,1,0,417,0,1
"473","1469223","1",11,"1",2015-08-19,"Morning",11,1,0,212,0,1
"474","1469223","1",11,"1",2015-08-19,"Afternoon",12,1,1,161,0,1
"475","1469223","1",11,"1",2015-08-20,"Morning",13,1,0,275,0,1
"476","1469223","1",11,"1",2015-08-20,"Afternoon",14,1,0,109,0,1
"477","1469223","1",11,"1",2015-08-21,"Morning",15,1,1,620,0,1
"478","1469223","1",11,"1",2015-08-21,"Afternoon",16,1,0,142,0,1
"479","1469223","1",11,"1",2015-08-24,"Morning",17,1,1,333,0,1
"480","1469223","1",11,"1",2015-08-24,"Afternoon",18,1,1,100,0,1
"481","1469223","1",11,"1",2015-08-25,"Morning",19,1,1,484,0,1
"482","1469223","1",11,"1",2015-08-25,"Afternoon",20,0,0,NA,0,1
"483","1469223","1",11,"1",2015-08-26,"Morning",21,0,0,NA,0,1
"484","1469223","1",11,"1",2015-08-26,"Afternoon",22,0,0,NA,0,1
"485","1469223","1",11,"1",2015-08-27,"Morning",23,0,0,NA,0,1
"486","1469223","1",11,"1",2015-08-27,"Afternoon",24,1,0,338,0,1
"487","1469223","1",11,"1",2015-08-28,"Morning",25,1,0,296,0,1
"488","1469223","1",11,"1",2015-08-28,"Afternoon",26,0,0,NA,0,1
"489","1469229","1",3,"1",2015-08-10,"Morning",1,1,1,611,1,1
"490","1469229","1",3,"1",2015-08-10,"Afternoon",2,1,0,1633,1,1
"491","1469229","1",3,"1",2015-08-11,"Morning",3,1,1,695,1,1
"492","1469229","1",3,"1",2015-08-11,"Afternoon",4,0,0,NA,1,1
"493","1469229","1",3,"1",2015-08-14,"Morning",5,1,0,833,1,1
"494","1469229","1",3,"1",2015-08-14,"Afternoon",6,1,1,699,1,1
"495","1469229","1",3,"1",2015-08-17,"Morning",7,1,1,363,1,1
"496","1469229","1",3,"1",2015-08-17,"Afternoon",8,1,0,355,1,1
"497","1469229","1",3,"1",2015-08-18,"Morning",9,1,0,1153,0,1
"498","1469229","1",3,"1",2015-08-18,"Afternoon",10,0,0,NA,0,1
"499","1469229","1",3,"1",2015-08-19,"Morning",11,1,0,211,0,1
"500","1469229","1",3,"1",2015-08-19,"Afternoon",12,0,0,NA,0,1
"501","1469229","1",3,"1",2015-08-20,"Morning",13,1,0,189,0,1
"502","1469229","1",3,"1",2015-08-20,"Afternoon",14,1,0,461,0,1
"503","1469229","1",3,"1",2015-08-21,"Morning",15,1,0,774,0,1
"504","1469229","1",3,"1",2015-08-21,"Afternoon",16,1,0,548,0,1
"505","1469229","1",3,"1",2015-08-24,"Morning",17,1,1,383,0,1
"506","1469229","1",3,"1",2015-08-24,"Afternoon",18,1,1,477,0,1
"507","1469229","1",3,"1",2015-08-25,"Morning",19,1,1,473,0,1
"508","1469229","1",3,"1",2015-08-25,"Afternoon",20,1,0,178,0,1
"509","1469229","1",3,"1",2015-08-26,"Morning",21,1,0,644,0,1
"510","1469229","1",3,"1",2015-08-26,"Afternoon",22,1,0,1274,0,1
"511","1469229","1",3,"1",2015-08-27,"Morning",23,1,0,920,0,1
"512","1469229","1",3,"1",2015-08-27,"Afternoon",24,1,0,178,0,1
"513","1469229","1",3,"1",2015-08-28,"Morning",25,1,0,765,0,1
"514","1469229","1",3,"1",2015-08-28,"Afternoon",26,1,0,1078,0,1
"515","1469703","1",5,"1",2015-08-24,"Morning",1,1,1,118,1,1
"516","1469703","1",5,"1",2015-08-24,"Afternoon",2,1,1,36,1,1
"517","1469703","1",5,"1",2015-08-25,"Morning",3,1,1,282,1,1
"518","1469703","1",5,"1",2015-08-25,"Afternoon",4,1,1,200,1,1
"519","1469703","1",5,"1",2015-08-26,"Morning",5,0,0,NA,1,1
"520","1469703","1",5,"1",2015-08-26,"Afternoon",6,1,0,569,1,1
"521","1469703","1",5,"1",2015-08-27,"Morning",7,1,0,212,1,1
"522","1469703","1",5,"1",2015-08-27,"Afternoon",8,1,0,811,1,1
"523","1469703","1",5,"1",2015-08-28,"Morning",9,1,0,249,0,1
"524","1469703","1",5,"1",2015-08-31,"Morning",10,1,0,324,0,1
"525","1469703","1",5,"1",2015-09-02,"Morning",11,1,0,368,0,1
"526","1469703","1",5,"1",2015-09-03,"Morning",12,1,0,662,0,1
"527","1469703","1",5,"1",2015-09-04,"Morning",13,1,0,161,0,1
"528","1469703","1",5,"1",2015-09-07,"Morning",14,1,1,2813,0,1
"529","1469703","1",5,"1",2015-09-08,"Morning",15,1,0,845,0,1
"530","1469703","1",5,"1",2015-09-09,"Morning",16,1,0,155,0,1
"531","1469703","1",5,"1",2015-09-11,"Morning",17,1,1,573,0,1
"532","1470760","2",5,"0",2015-10-19,"Morning",1,1,0,130,1,1
"533","1470760","2",5,"0",2015-10-19,"Afternoon",2,1,0,93,1,1
"534","1470760","2",5,"0",2015-10-20,"Morning",3,0,0,NA,1,1
"535","1470760","2",5,"0",2015-10-20,"Afternoon",4,0,0,NA,1,1
"536","1470760","2",5,"0",2015-10-21,"Morning",5,1,0,144,1,1
"537","1470760","2",5,"0",2015-10-21,"Afternoon",6,0,0,NA,1,1
"538","1470760","2",5,"0",2015-10-22,"Morning",7,1,0,22,1,1
"539","1470760","2",5,"0",2015-10-22,"Afternoon",8,1,0,702,1,1
"540","1470760","2",5,"0",2015-10-23,"Morning",9,1,0,20,1,1
"541","1470760","2",5,"0",2015-10-23,"Afternoon",10,1,0,24,1,1
"542","1470760","2",5,"0",2015-10-26,"Morning",11,1,0,100,1,1
"543","1470760","2",5,"0",2015-10-26,"Afternoon",12,1,0,252,1,1
"544","1470760","2",5,"0",2015-10-27,"Morning",13,1,0,310,0,1
"545","1470760","2",5,"0",2015-10-27,"Afternoon",14,1,0,74,0,1
"546","1470760","2",5,"0",2015-10-28,"Morning",15,1,0,17,0,1
"547","1470760","2",5,"0",2015-10-28,"Afternoon",16,1,0,54,0,1
"548","1470760","2",5,"0",2015-10-29,"Morning",17,1,0,80,0,1
"549","1470760","2",5,"0",2015-10-29,"Afternoon",18,1,0,78,0,1
"550","1470760","2",5,"0",2015-10-30,"Morning",19,1,0,52,0,1
"551","1470760","2",5,"0",2015-10-30,"Afternoon",20,1,0,698,0,1
"552","1470760","2",5,"0",2015-11-02,"Morning",21,1,0,61,0,1
"553","1470760","2",5,"0",2015-11-02,"Afternoon",22,1,0,877,0,1
"554","1470760","2",5,"0",2015-11-03,"Morning",23,1,0,267,0,1
"555","1470760","2",5,"0",2015-11-03,"Afternoon",24,0,0,NA,0,1
"556","1470760","2",5,"0",2015-11-04,"Morning",25,0,0,NA,0,1
"557","1470760","2",5,"0",2015-11-04,"Afternoon",26,1,0,73,0,1
"558","1470760","2",5,"0",2015-11-05,"Morning",27,1,0,119,0,1
"559","1470760","2",5,"0",2015-11-05,"Afternoon",28,1,0,77,0,1
"560","1470760","2",5,"0",2015-11-06,"Morning",29,0,0,NA,0,1
"561","1470760","2",5,"0",2015-11-06,"Afternoon",30,1,0,232,0,1
"562","3368899","1",19,"0",2015-08-10,"Morning",1,1,0,1425,1,1
"563","3368899","1",19,"0",2015-08-10,"Afternoon",2,1,0,1147,1,1
"564","3368899","1",19,"0",2015-08-11,"Morning",3,1,1,690,1,1
"565","3368899","1",19,"0",2015-08-11,"Afternoon",4,0,0,NA,1,1
"566","3368899","1",19,"0",2015-08-14,"Morning",5,1,0,414,1,1
"567","3368899","1",19,"0",2015-08-14,"Afternoon",6,1,0,778,1,1
"568","3368899","1",19,"0",2015-08-17,"Morning",7,1,1,523,1,1
"569","3368899","1",19,"0",2015-08-17,"Afternoon",8,1,0,1399,1,1
"570","3368899","1",19,"0",2015-08-18,"Morning",9,1,0,446,0,1
"571","3368899","1",19,"0",2015-08-18,"Afternoon",10,1,0,783,0,1
"572","3368899","1",19,"0",2015-08-19,"Morning",11,0,0,NA,0,1
"573","3368899","1",19,"0",2015-08-19,"Afternoon",12,1,0,4071,0,1
"574","3368899","1",19,"0",2015-08-20,"Morning",13,0,0,NA,0,1
"575","3368899","1",19,"0",2015-08-20,"Afternoon",14,1,0,856,0,1
"576","3368899","1",19,"0",2015-08-21,"Morning",15,1,0,375,0,1
"577","3368899","1",19,"0",2015-08-21,"Afternoon",16,1,1,916,0,1
"578","3368899","1",19,"0",2015-08-24,"Morning",17,1,1,165,0,1
"579","3368899","1",19,"0",2015-08-24,"Afternoon",18,1,1,3410,0,1
"580","3368899","1",19,"0",2015-08-25,"Morning",19,1,1,776,0,1
"581","3368899","1",19,"0",2015-08-25,"Afternoon",20,1,1,548,0,1
"582","3368899","1",19,"0",2015-08-26,"Morning",21,0,0,NA,0,1
"583","3368899","1",19,"0",2015-08-26,"Afternoon",22,1,0,986,0,1
"584","3368899","1",19,"0",2015-08-27,"Morning",23,0,0,NA,0,1
"585","3368899","1",19,"0",2015-08-27,"Afternoon",24,1,1,990,0,1
"586","3368899","1",19,"0",2015-08-28,"Morning",25,0,0,NA,0,1
"587","3368899","1",19,"0",2015-08-28,"Afternoon",26,1,0,1179,0,1
"588","3369769","2",2,"1",2015-10-19,"Morning",1,1,0,302,1,1
"589","3369769","2",2,"1",2015-10-19,"Afternoon",2,1,0,548,1,1
"590","3369769","2",2,"1",2015-10-20,"Morning",3,1,0,824,1,1
"591","3369769","2",2,"1",2015-10-20,"Afternoon",4,1,0,353,1,1
"592","3369769","2",2,"1",2015-10-21,"Morning",5,1,0,599,1,1
"593","3369769","2",2,"1",2015-10-21,"Afternoon",6,1,0,221,1,1
"594","3369769","2",2,"1",2015-10-22,"Morning",7,1,0,144,1,1
"595","3369769","2",2,"1",2015-10-22,"Afternoon",8,1,0,232,1,1
"596","3369769","2",2,"1",2015-10-23,"Morning",9,1,0,296,0,1
"597","3369769","2",2,"1",2015-10-23,"Afternoon",10,1,0,657,0,1
"598","3369769","2",2,"1",2015-10-26,"Morning",11,1,0,56,0,1
"599","3369769","2",2,"1",2015-10-26,"Afternoon",12,1,0,148,0,1
"600","3369769","2",2,"1",2015-10-27,"Morning",13,1,0,71,0,1
"601","3369769","2",2,"1",2015-10-27,"Afternoon",14,1,0,70,0,1
"602","3369769","2",2,"1",2015-10-28,"Morning",15,1,0,34,0,1
"603","3369769","2",2,"1",2015-10-28,"Afternoon",16,1,0,162,0,1
"604","3369769","2",2,"1",2015-10-29,"Morning",17,1,0,66,0,1
"605","3369769","2",2,"1",2015-10-29,"Afternoon",18,1,0,149,0,1
"606","3369769","2",2,"1",2015-10-30,"Morning",19,1,0,27,0,1
"607","3369769","2",2,"1",2015-10-30,"Afternoon",20,1,0,156,0,1
"608","3369769","2",2,"1",2015-11-02,"Morning",21,1,0,56,0,1
"609","3369769","2",2,"1",2015-11-02,"Afternoon",22,1,0,43,0,1
"610","3369769","2",2,"1",2015-11-03,"Morning",23,1,0,29,0,1
"611","3369769","2",2,"1",2015-11-03,"Afternoon",24,1,0,59,0,1
"612","3369769","2",2,"1",2015-11-04,"Morning",25,0,0,NA,0,1
"613","3369769","2",2,"1",2015-11-04,"Afternoon",26,1,0,71,0,1
"614","3369769","2",2,"1",2015-11-05,"Morning",27,1,0,27,0,1
"615","3369769","2",2,"1",2015-11-05,"Afternoon",28,1,0,114,0,1
"616","3369769","2",2,"1",2015-11-06,"Morning",29,1,0,766,0,1
"617","3369769","2",2,"1",2015-11-06,"Afternoon",30,1,0,90,0,1
"618","3371239","2",8,"0",2015-10-19,"Morning",1,0,0,NA,1,1
"619","3371239","2",8,"0",2015-10-19,"Afternoon",2,0,0,NA,1,1
"620","3371239","2",8,"0",2015-10-20,"Morning",3,1,0,144,1,1
"621","3371239","2",8,"0",2015-10-20,"Afternoon",4,1,0,539,1,1
"622","3371239","2",8,"0",2015-10-21,"Morning",5,1,0,106,1,1
"623","3371239","2",8,"0",2015-10-21,"Afternoon",6,1,0,342,1,1
"624","3371239","2",8,"0",2015-10-22,"Morning",7,0,0,NA,1,1
"625","3371239","2",8,"0",2015-10-22,"Afternoon",8,1,0,216,1,1
"626","3371239","2",8,"0",2015-10-23,"Morning",9,1,0,357,1,1
"627","3371239","2",8,"0",2015-10-23,"Afternoon",10,1,0,286,1,1
"628","3371239","2",8,"0",2015-10-26,"Morning",11,0,0,NA,0,1
"629","3371239","2",8,"0",2015-10-26,"Afternoon",12,1,0,394,0,1
"630","3371239","2",8,"0",2015-10-27,"Morning",13,1,0,161,0,1
"631","3371239","2",8,"0",2015-10-27,"Afternoon",14,1,0,405,0,1
"632","3371239","2",8,"0",2015-10-28,"Morning",15,1,0,160,0,1
"633","3371239","2",8,"0",2015-10-28,"Afternoon",16,1,0,402,0,1
"634","3371239","2",8,"0",2015-10-29,"Morning",17,1,0,299,0,1
"635","3371239","2",8,"0",2015-10-29,"Afternoon",18,1,0,271,0,1
"636","3371239","2",8,"0",2015-10-30,"Morning",19,1,0,169,0,1
"637","3371239","2",8,"0",2015-10-30,"Afternoon",20,1,0,428,0,1
"638","3371239","2",8,"0",2015-11-02,"Morning",21,1,0,192,0,1
"639","3371239","2",8,"0",2015-11-02,"Afternoon",22,1,0,119,0,1
"640","3371239","2",8,"0",2015-11-03,"Morning",23,1,0,138,0,1
"641","3371239","2",8,"0",2015-11-03,"Afternoon",24,1,0,342,0,1
"642","3371239","2",8,"0",2015-11-04,"Morning",25,1,0,65,0,1
"643","3371239","2",8,"0",2015-11-04,"Afternoon",26,0,0,NA,0,1
"644","3371239","2",8,"0",2015-11-05,"Morning",27,1,0,114,0,1
"645","3371239","2",8,"0",2015-11-05,"Afternoon",28,1,0,317,0,1
"646","3371239","2",8,"0",2015-11-06,"Morning",29,1,0,269,0,1
"647","3371239","2",8,"0",2015-11-06,"Afternoon",30,1,0,447,0,1
"648","3371916","2",10,"0",2015-10-19,"Morning",1,0,0,NA,1,1
"649","3371916","2",10,"0",2015-10-19,"Afternoon",2,1,0,121,1,1
"650","3371916","2",10,"0",2015-10-20,"Morning",3,1,0,135,1,1
"651","3371916","2",10,"0",2015-10-20,"Afternoon",4,1,0,217,1,1
"652","3371916","2",10,"0",2015-10-21,"Morning",5,1,0,204,1,1
"653","3371916","2",10,"0",2015-10-21,"Afternoon",6,0,0,NA,1,1
"654","3371916","2",10,"0",2015-10-22,"Morning",7,1,0,84,1,1
"655","3371916","2",10,"0",2015-10-22,"Afternoon",8,1,0,138,1,1
"656","3371916","2",10,"0",2015-10-23,"Morning",9,1,0,144,1,1
"657","3371916","2",10,"0",2015-10-23,"Afternoon",10,0,0,NA,0,1
"658","3371916","2",10,"0",2015-10-26,"Morning",11,1,0,135,0,1
"659","3371916","2",10,"0",2015-10-26,"Afternoon",12,1,0,186,0,1
"660","3371916","2",10,"0",2015-10-27,"Morning",13,0,0,NA,0,1
"661","3371916","2",10,"0",2015-10-27,"Afternoon",14,1,0,141,0,1
"662","3371916","2",10,"0",2015-10-28,"Morning",15,1,0,38,0,1
"663","3371916","2",10,"0",2015-10-28,"Afternoon",16,0,0,NA,0,1
"664","3371916","2",10,"0",2015-10-29,"Morning",17,1,0,23,0,1
"665","3371916","2",10,"0",2015-10-29,"Afternoon",18,1,0,95,0,1
"666","3371916","2",10,"0",2015-10-30,"Morning",19,1,0,83,0,1
"667","3371916","2",10,"0",2015-10-30,"Afternoon",20,0,0,NA,0,1
"668","3371916","2",10,"0",2015-11-02,"Morning",21,1,0,96,0,1
"669","3371916","2",10,"0",2015-11-02,"Afternoon",22,1,0,128,0,1
"670","3371916","2",10,"0",2015-11-03,"Morning",23,1,0,131,0,1
"671","3371916","2",10,"0",2015-11-03,"Afternoon",24,1,0,342,0,1
"672","3371916","2",10,"0",2015-11-04,"Morning",25,1,0,78,0,1
"673","3371916","2",10,"0",2015-11-04,"Afternoon",26,1,0,172,0,1
"674","3371916","2",10,"0",2015-11-05,"Morning",27,1,0,144,0,1
"675","3371916","2",10,"0",2015-11-05,"Afternoon",28,1,0,128,0,1
"676","3371916","2",10,"0",2015-11-06,"Morning",29,1,0,29,0,1
"677","3371916","2",10,"0",2015-11-06,"Afternoon",30,1,0,235,0,1
"678","3372126","2",1,"1",2015-10-19,"Morning",1,1,0,400,1,1
"679","3372126","2",1,"1",2015-10-19,"Afternoon",2,1,0,1087,1,1
"680","3372126","2",1,"1",2015-10-20,"Morning",3,1,0,398,1,1
"681","3372126","2",1,"1",2015-10-20,"Afternoon",4,0,0,NA,1,1
"682","3372126","2",1,"1",2015-10-21,"Morning",5,1,0,94,1,1
"683","3372126","2",1,"1",2015-10-21,"Afternoon",6,1,0,653,1,1
"684","3372126","2",1,"1",2015-10-22,"Morning",7,0,0,NA,1,1
"685","3372126","2",1,"1",2015-10-22,"Afternoon",8,1,0,281,1,1
"686","3372126","2",1,"1",2015-10-23,"Morning",9,1,0,59,1,1
"687","3372126","2",1,"1",2015-10-23,"Afternoon",10,0,0,NA,1,1
"688","3372126","2",1,"1",2015-10-26,"Morning",11,1,0,95,1,1
"689","3372126","2",1,"1",2015-10-26,"Afternoon",12,1,0,352,1,1
"690","3372126","2",1,"1",2015-10-27,"Morning",13,1,0,385,1,1
"691","3372126","2",1,"1",2015-10-27,"Afternoon",14,1,0,359,1,1
"692","3372126","2",1,"1",2015-10-28,"Morning",15,1,0,68,1,1
"693","3372126","2",1,"1",2015-10-28,"Afternoon",16,1,0,230,0,1
"694","3372126","2",1,"1",2015-10-29,"Morning",17,1,0,454,0,1
"695","3372126","2",1,"1",2015-10-29,"Afternoon",18,1,0,1065,0,1
"696","3372126","2",1,"1",2015-10-30,"Morning",19,0,0,NA,0,1
"697","3372126","2",1,"1",2015-10-30,"Afternoon",20,0,0,NA,0,1
"698","3372126","2",1,"1",2015-11-02,"Morning",21,1,0,151,0,1
"699","3372126","2",1,"1",2015-11-02,"Afternoon",22,1,0,136,0,1
"700","3372126","2",1,"1",2015-11-03,"Morning",23,0,0,NA,0,1
"701","3372126","2",1,"1",2015-11-03,"Afternoon",24,1,0,276,0,1
"702","3372126","2",1,"1",2015-11-04,"Morning",25,0,0,NA,0,1
"703","3372126","2",1,"1",2015-11-04,"Afternoon",26,0,0,NA,0,1
"704","3372126","2",1,"1",2015-11-05,"Morning",27,1,0,169,0,1
"705","3372126","2",1,"1",2015-11-05,"Afternoon",28,0,0,NA,0,1
"706","3372126","2",1,"1",2015-11-06,"Morning",29,1,0,191,0,1
"707","3372126","2",1,"1",2015-11-06,"Afternoon",30,0,0,NA,0,1
"708","3374160","2",4,"1",2015-10-19,"Morning",1,1,0,735,1,1
"709","3374160","2",4,"1",2015-10-19,"Afternoon",2,1,0,1613,1,1
"710","3374160","2",4,"1",2015-10-20,"Morning",3,0,0,NA,1,1
"711","3374160","2",4,"1",2015-10-20,"Afternoon",4,1,0,1105,1,1
"712","3374160","2",4,"1",2015-10-21,"Morning",5,1,0,1462,1,1
"713","3374160","2",4,"1",2015-10-21,"Afternoon",6,1,0,928,1,1
"714","3374160","2",4,"1",2015-10-22,"Morning",7,1,0,779,1,1
"715","3374160","2",4,"1",2015-10-23,"Morning",8,1,0,389,1,1
"716","3374160","2",4,"1",2015-10-23,"Afternoon",9,0,0,NA,0,1
"717","3374160","2",4,"1",2015-10-26,"Morning",10,1,0,555,0,1
"718","3374160","2",4,"1",2015-10-26,"Afternoon",11,0,0,NA,0,1
"719","3374160","2",4,"1",2015-10-27,"Morning",12,1,0,841,0,1
"720","3374160","2",4,"1",2015-10-27,"Afternoon",13,1,0,757,0,1
"721","3374160","2",4,"1",2015-10-28,"Morning",14,0,0,NA,0,1
"722","3374160","2",4,"1",2015-10-28,"Afternoon",15,1,0,1258,0,1
"723","3374160","2",4,"1",2015-10-29,"Morning",16,1,0,1183,0,1
"724","3374160","2",4,"1",2015-10-29,"Afternoon",17,0,0,NA,0,1
"725","3374160","2",4,"1",2015-10-30,"Morning",18,1,0,872,0,1
"726","3374160","2",4,"1",2015-11-02,"Morning",19,0,0,NA,0,1
"727","3374160","2",4,"1",2015-11-02,"Afternoon",20,1,0,399,0,1
"728","3374160","2",4,"1",2015-11-03,"Morning",21,1,0,930,0,1
"729","3374160","2",4,"1",2015-11-04,"Morning",22,0,0,NA,0,1
"730","3374160","2",4,"1",2015-11-04,"Afternoon",23,0,0,NA,0,1
"731","3374160","2",4,"1",2015-11-05,"Morning",24,1,0,468,0,1
"732","3374160","2",4,"1",2015-11-05,"Afternoon",25,1,0,328,0,1
"733","3374160","2",4,"1",2015-11-06,"Morning",26,1,0,1460,0,1
"734","3374160","2",4,"1",2015-11-06,"Afternoon",27,0,0,NA,0,1
"735","3374264","1",7,"1",2015-08-24,"Morning",1,1,1,430,1,1
"736","3374264","1",7,"1",2015-08-24,"Afternoon",2,1,1,167,1,1
"737","3374264","1",7,"1",2015-08-25,"Morning",3,1,0,367,1,1
"738","3374264","1",7,"1",2015-08-25,"Afternoon",4,1,0,135,1,1
"739","3374264","1",7,"1",2015-08-26,"Morning",5,1,0,590,1,1
"740","3374264","1",7,"1",2015-08-26,"Afternoon",6,0,0,NA,1,1
"741","3374264","1",7,"1",2015-08-27,"Morning",7,1,0,620,1,1
"742","3374264","1",7,"1",2015-08-27,"Afternoon",8,1,0,943,1,1
"743","3374264","1",7,"1",2015-08-28,"Morning",9,1,0,558,0,1
"744","3374264","1",7,"1",2015-08-28,"Afternoon",10,0,0,NA,0,1
"745","3374264","1",7,"1",2015-08-31,"Morning",11,1,0,1199,0,1
"746","3374264","1",7,"1",2015-08-31,"Afternoon",12,0,0,NA,0,1
"747","3374264","1",7,"1",2015-09-01,"Morning",13,1,0,301,0,1
"748","3374264","1",7,"1",2015-09-01,"Afternoon",14,1,0,543,0,1
"749","3374264","1",7,"1",2015-09-02,"Morning",15,0,0,NA,0,1
"750","3374264","1",7,"1",2015-09-03,"Morning",16,0,0,NA,0,1
"751","3374264","1",7,"1",2015-09-04,"Morning",17,1,0,305,0,1
"752","3374264","1",7,"1",2015-09-04,"Afternoon",18,0,0,NA,0,1
"753","3374264","1",7,"1",2015-09-07,"Morning",19,0,0,NA,0,1
"754","3374264","1",7,"1",2015-09-08,"Morning",20,1,0,159,0,1
"755","3374264","1",7,"1",2015-09-08,"Afternoon",21,1,0,814,0,1
"756","3374264","1",7,"1",2015-09-09,"Morning",22,1,0,1587,0,1
"757","3374264","1",7,"1",2015-09-10,"Morning",23,0,0,NA,0,1
"758","3374264","1",7,"1",2015-09-11,"Morning",24,0,0,NA,0,1
