LizardID,Batch,TubID,Treatment,Date,Time,Trial,Correct,Choose.only.correct.dish,Latency,lt,learnt1468460,1,9,1,10/08/2015,Morning,1,1,1,1722,1,11468460,1,9,1,10/08/2015,Afternoon,2,1,1,970,1,11468460,1,9,1,11/08/2015,Morning,3,1,1,256,1,11468460,1,9,1,11/08/2015,Afternoon,4,1,1,1180,1,11468460,1,9,1,14/08/2015,Morning,5,1,0,263,1,11468460,1,9,1,14/08/2015,Afternoon,6,1,0,726,1,11468460,1,9,1,17/08/2015,Morning,7,1,1,248,1,11468460,1,9,1,17/08/2015,Afternoon,8,1,0,2156,1,11468460,1,9,1,18/08/2015,Morning,9,1,0,333,0,11468460,1,9,1,18/08/2015,Afternoon,10,1,0,485,0,11468460,1,9,1,19/08/2015,Morning,11,1,0,1113,0,11468460,1,9,1,19/08/2015,Afternoon,12,1,0,432,0,11468460,1,9,1,20/08/2015,Morning,13,1,1,379,0,11468460,1,9,1,20/08/2015,Afternoon,14,1,0,1024,0,11468460,1,9,1,21/08/2015,Morning,15,1,1,423,0,11468460,1,9,1,21/08/2015,Afternoon,16,1,0,280,0,11468460,1,9,1,24/08/2015,Morning,17,1,0,529,0,11468460,1,9,1,24/08/2015,Afternoon,18,1,1,801,0,11468460,1,9,1,25/08/2015,Morning,19,1,1,224,0,11468460,1,9,1,25/08/2015,Afternoon,20,1,0,967,0,11468460,1,9,1,26/08/2015,Morning,21,0,0,NA,0,11468460,1,9,1,26/08/2015,Afternoon,22,0,0,NA,0,11468460,1,9,1,27/08/2015,Morning,23,0,0,NA,0,11468460,1,9,1,27/08/2015,Afternoon,24,1,0,787,0,11468460,1,9,1,28/08/2015,Morning,25,1,0,547,0,11468460,1,9,1,28/08/2015,Afternoon,26,1,1,602,0,11468476,1,15,0,10/08/2015,Morning,1,0,0,161,1,11468476,1,15,0,10/08/2015,Afternoon,2,1,0,150,1,11468476,1,15,0,11/08/2015,Morning,3,1,0,359,1,11468476,1,15,0,11/08/2015,Afternoon,4,0,0,NA,1,11468476,1,15,0,14/08/2015,Morning,5,0,0,NA,1,11468476,1,15,0,14/08/2015,Afternoon,6,0,0,NA,1,11468476,1,15,0,17/08/2015,Morning,7,1,0,332,1,11468476,1,15,0,17/08/2015,Afternoon,8,1,0,473,1,11468476,1,15,0,18/08/2015,Morning,9,1,0,213,1,11468476,1,15,0,18/08/2015,Afternoon,10,1,1,88,1,11468476,1,15,0,19/08/2015,Morning,11,1,0,140,1,11468476,1,15,0,19/08/2015,Afternoon,12,1,0,165,1,11468476,1,15,0,20/08/2015,Morning,13,1,0,214,1,11468476,1,15,0,20/08/2015,Afternoon,14,1,0,155,0,11468476,1,15,0,21/08/2015,Morning,15,1,0,68,0,11468476,1,15,0,21/08/2015,Afternoon,16,1,0,66,0,11468476,1,15,0,24/08/2015,Morning,17,1,1,312,0,11468476,1,15,0,24/08/2015,Afternoon,18,1,0,145,0,11468476,1,15,0,25/08/2015,Morning,19,1,1,89,0,11468476,1,15,0,25/08/2015,Afternoon,20,1,0,393,0,11468476,1,15,0,26/08/2015,Morning,21,1,0,139,0,11468476,1,15,0,26/08/2015,Afternoon,22,1,0,323,0,11468476,1,15,0,27/08/2015,Morning,23,1,0,172,0,11468476,1,15,0,27/08/2015,Afternoon,24,1,0,70,0,11468476,1,15,0,28/08/2015,Morning,25,1,0,182,0,11468476,1,15,0,28/08/2015,Afternoon,26,1,0,149,0,11468502,1,4,1,10/08/2015,Morning,1,0,0,1651,1,11468502,1,4,1,10/08/2015,Afternoon,2,1,0,1343,1,11468502,1,4,1,11/08/2015,Morning,3,1,0,1272,1,11468502,1,4,1,11/08/2015,Afternoon,4,1,1,719,1,11468502,1,4,1,14/08/2015,Morning,5,1,0,130,1,11468502,1,4,1,14/08/2015,Afternoon,6,1,0,848,1,11468502,1,4,1,17/08/2015,Morning,7,1,0,662,1,11468502,1,4,1,17/08/2015,Afternoon,8,1,1,575,1,11468502,1,4,1,18/08/2015,Morning,9,1,1,919,0,11468502,1,4,1,18/08/2015,Afternoon,10,1,0,652,0,11468502,1,4,1,19/08/2015,Morning,11,1,1,275,0,11468502,1,4,1,19/08/2015,Afternoon,12,1,0,526,0,11468502,1,4,1,20/08/2015,Morning,13,1,1,571,0,11468502,1,4,1,20/08/2015,Afternoon,14,1,0,740,0,11468502,1,4,1,21/08/2015,Morning,15,1,0,837,0,11468502,1,4,1,21/08/2015,Afternoon,16,1,0,587,0,11468502,1,4,1,24/08/2015,Morning,17,1,1,1019,0,11468502,1,4,1,24/08/2015,Afternoon,18,1,1,853,0,11468502,1,4,1,25/08/2015,Morning,19,1,0,877,0,11468502,1,4,1,25/08/2015,Afternoon,20,1,1,513,0,11468502,1,4,1,26/08/2015,Morning,21,0,0,NA,0,11468502,1,4,1,26/08/2015,Afternoon,22,1,0,1175,0,11468502,1,4,1,27/08/2015,Morning,23,1,0,1268,0,11468502,1,4,1,27/08/2015,Afternoon,24,0,0,NA,0,11468502,1,4,1,28/08/2015,Morning,25,1,0,1207,0,11468502,1,4,1,28/08/2015,Afternoon,26,1,0,949,0,11468504,2,7,0,19/10/2015,Morning,1,0,0,NA,1,11468504,2,7,0,19/10/2015,Afternoon,2,1,0,428,1,11468504,2,7,0,20/10/2015,Morning,3,1,0,74,1,11468504,2,7,0,20/10/2015,Afternoon,4,0,0,NA,1,11468504,2,7,0,21/10/2015,Morning,5,1,0,152,1,11468504,2,7,0,21/10/2015,Afternoon,6,0,0,NA,1,11468504,2,7,0,22/10/2015,Morning,7,1,0,190,1,11468504,2,7,0,22/10/2015,Afternoon,8,0,0,NA,1,11468504,2,7,0,23/10/2015,Morning,9,1,0,61,1,11468504,2,7,0,23/10/2015,Afternoon,10,0,0,NA,1,11468504,2,7,0,26/10/2015,Morning,11,1,0,265,1,11468504,2,7,0,26/10/2015,Afternoon,12,0,0,NA,1,11468504,2,7,0,27/10/2015,Morning,13,1,0,33,1,11468504,2,7,0,27/10/2015,Afternoon,14,1,0,382,1,11468504,2,7,0,28/10/2015,Morning,15,1,0,220,1,11468504,2,7,0,28/10/2015,Afternoon,16,1,0,346,1,11468504,2,7,0,29/10/2015,Morning,17,0,0,NA,1,11468504,2,7,0,29/10/2015,Afternoon,18,1,0,556,1,11468504,2,7,0,30/10/2015,Morning,19,1,0,211,1,11468504,2,7,0,30/10/2015,Afternoon,20,1,0,698,1,11468504,2,7,0,2/11/2015,Morning,21,1,0,292,0,11468504,2,7,0,2/11/2015,Afternoon,22,1,0,64,0,11468504,2,7,0,3/11/2015,Morning,23,0,0,NA,0,11468504,2,7,0,3/11/2015,Afternoon,24,1,0,141,0,11468504,2,7,0,4/11/2015,Morning,25,1,0,418,0,11468504,2,7,0,4/11/2015,Afternoon,26,0,0,NA,0,11468504,2,7,0,5/11/2015,Morning,27,1,0,308,0,11468504,2,7,0,5/11/2015,Afternoon,28,0,0,NA,0,11468504,2,7,0,6/11/2015,Morning,29,1,0,247,0,11468504,2,7,0,6/11/2015,Afternoon,30,1,0,162,0,11468506,1,2,1,10/08/2015,Morning,1,0,0,NA,1,11468506,1,2,1,10/08/2015,Afternoon,2,1,0,169,1,11468506,1,2,1,11/08/2015,Morning,3,1,0,244,1,11468506,1,2,1,11/08/2015,Afternoon,4,1,0,143,1,11468506,1,2,1,14/08/2015,Morning,5,1,1,91,1,11468506,1,2,1,14/08/2015,Afternoon,6,1,0,163,1,11468506,1,2,1,17/08/2015,Morning,7,1,0,31,1,11468506,1,2,1,17/08/2015,Afternoon,8,1,0,99,1,11468506,1,2,1,18/08/2015,Morning,9,1,1,162,0,11468506,1,2,1,18/08/2015,Afternoon,10,1,0,54,0,11468506,1,2,1,19/08/2015,Morning,11,1,0,78,0,11468506,1,2,1,19/08/2015,Afternoon,12,1,0,69,0,11468506,1,2,1,20/08/2015,Morning,13,0,0,NA,0,11468506,1,2,1,20/08/2015,Afternoon,14,1,0,45,0,11468506,1,2,1,21/08/2015,Morning,15,1,0,175,0,11468506,1,2,1,21/08/2015,Afternoon,16,1,0,192,0,11468506,1,2,1,24/08/2015,Morning,17,1,1,59,0,11468506,1,2,1,24/08/2015,Afternoon,18,1,1,43,0,11468506,1,2,1,25/08/2015,Morning,19,1,1,202,0,11468506,1,2,1,25/08/2015,Afternoon,20,1,0,292,0,11468506,1,2,1,26/08/2015,Morning,21,0,0,NA,0,11468506,1,2,1,26/08/2015,Afternoon,22,0,0,NA,0,11468506,1,2,1,27/08/2015,Morning,23,1,1,92,0,11468506,1,2,1,27/08/2015,Afternoon,24,1,0,121,0,11468506,1,2,1,28/08/2015,Morning,25,1,0,117,0,11468506,1,2,1,28/08/2015,Afternoon,26,1,0,66,0,11468509,1,8,1,17/08/2015,Morning,1,1,1,334,1,11468509,1,8,1,17/08/2015,Afternoon,2,1,0,477,1,11468509,1,8,1,18/08/2015,Morning,3,1,1,344,1,11468509,1,8,1,18/08/2015,Afternoon,4,1,1,154,1,11468509,1,8,1,19/08/2015,Morning,5,1,0,273,1,11468509,1,8,1,19/08/2015,Afternoon,6,1,0,157,1,11468509,1,8,1,20/08/2015,Morning,7,1,0,148,1,11468509,1,8,1,20/08/2015,Afternoon,8,0,0,NA,1,11468509,1,8,1,21/08/2015,Morning,9,1,0,291,0,11468509,1,8,1,21/08/2015,Afternoon,10,1,0,184,0,11468509,1,8,1,24/08/2015,Afternoon,11,1,1,239,0,11468509,1,8,1,25/08/2015,Morning,12,1,1,44,0,11468509,1,8,1,25/08/2015,Afternoon,13,1,1,84,0,11468509,1,8,1,26/08/2015,Morning,14,0,0,NA,0,11468509,1,8,1,26/08/2015,Afternoon,15,1,0,167,0,11468509,1,8,1,27/08/2015,Morning,16,1,0,168,0,11468509,1,8,1,27/08/2015,Afternoon,17,0,0,NA,0,11468509,1,8,1,28/08/2015,Morning,18,0,0,NA,0,11468509,1,8,1,28/08/2015,Afternoon,19,1,0,130,0,11468509,1,8,1,31/08/2015,Morning,20,1,0,382,0,11468509,1,8,1,1/09/2015,Morning,21,1,0,402,0,11468509,1,8,1,1/09/2015,Afternoon,22,1,0,388,0,11468509,1,8,1,2/09/2015,Morning,23,0,0,NA,0,11468509,1,8,1,2/09/2015,Afternoon,24,0,0,NA,0,11468509,1,8,1,3/09/2015,Morning,25,1,0,354,0,11468509,1,8,1,4/09/2015,Morning,26,1,0,147,0,11468509,1,8,1,4/09/2015,Afternoon,27,0,0,NA,0,11468510,1,6,1,10/08/2015,Afternoon,1,0,0,NA,1,11468510,1,6,1,11/08/2015,Morning,2,0,0,NA,1,11468510,1,6,1,14/08/2015,Morning,3,0,0,NA,1,11468510,1,6,1,17/08/2015,Morning,4,1,0,206,1,11468510,1,6,1,18/08/2015,Morning,5,1,0,308,1,11468510,1,6,1,18/08/2015,Afternoon,6,1,0,292,1,11468510,1,6,1,19/08/2015,Morning,7,1,0,137,1,11468510,1,6,1,19/08/2015,Afternoon,8,1,0,126,1,11468510,1,6,1,20/08/2015,Morning,9,1,0,119,1,11468510,1,6,1,20/08/2015,Afternoon,10,1,0,89,1,11468510,1,6,1,21/08/2015,Morning,11,1,0,52,0,11468510,1,6,1,21/08/2015,Afternoon,12,0,0,NA,0,11468510,1,6,1,24/08/2015,Morning,13,1,1,997,0,11468510,1,6,1,24/08/2015,Afternoon,14,1,0,1075,0,11468510,1,6,1,25/08/2015,Morning,15,1,1,899,0,11468510,1,6,1,25/08/2015,Afternoon,16,1,0,554,0,11468510,1,6,1,26/08/2015,Morning,17,1,0,850,0,11468510,1,6,1,26/08/2015,Afternoon,18,1,0,981,0,11468510,1,6,1,27/08/2015,Morning,19,1,1,698,0,11468510,1,6,1,27/08/2015,Afternoon,20,1,0,1460,0,11468510,1,6,1,28/08/2015,Morning,21,1,0,544,0,11468510,1,6,1,28/08/2015,Afternoon,22,0,0,NA,0,11468515,1,10,1,10/08/2015,Morning,1,1,0,19,1,11468515,1,10,1,10/08/2015,Afternoon,2,0,0,NA,1,11468515,1,10,1,11/08/2015,Morning,3,1,0,270,1,11468515,1,10,1,11/08/2015,Afternoon,4,1,0,72,1,11468515,1,10,1,14/08/2015,Morning,5,1,0,81,1,11468515,1,10,1,14/08/2015,Afternoon,6,1,0,21,1,11468515,1,10,1,17/08/2015,Morning,7,1,0,161,1,11468515,1,10,1,17/08/2015,Afternoon,8,1,0,565,1,11468515,1,10,1,18/08/2015,Morning,9,1,0,47,0,11468515,1,10,1,18/08/2015,Afternoon,10,1,0,156,0,11468515,1,10,1,19/08/2015,Morning,11,1,0,168,0,11468515,1,10,1,19/08/2015,Afternoon,12,1,0,160,0,11468515,1,10,1,20/08/2015,Morning,13,1,0,NA,0,11468515,1,10,1,20/08/2015,Afternoon,14,1,0,272,0,11468515,1,10,1,21/08/2015,Morning,15,0,0,NA,0,11468515,1,10,1,21/08/2015,Afternoon,16,1,0,97,0,11468515,1,10,1,24/08/2015,Morning,17,1,1,165,0,11468515,1,10,1,24/08/2015,Afternoon,18,1,1,103,0,11468515,1,10,1,25/08/2015,Morning,19,1,1,107,0,11468515,1,10,1,25/08/2015,Afternoon,20,1,0,142,0,11468515,1,10,1,26/08/2015,Morning,21,0,0,NA,0,11468515,1,10,1,26/08/2015,Afternoon,22,0,0,NA,0,11468515,1,10,1,27/08/2015,Morning,23,1,0,66,0,11468515,1,10,1,27/08/2015,Afternoon,24,1,0,86,0,11468515,1,10,1,28/08/2015,Morning,25,1,0,193,0,11468515,1,10,1,28/08/2015,Afternoon,26,1,0,106,0,11468516,2,12,0,19/10/2015,Morning,1,1,0,82,1,11468516,2,12,0,19/10/2015,Afternoon,2,1,0,52,1,11468516,2,12,0,20/10/2015,Morning,3,1,1,47,1,11468516,2,12,0,20/10/2015,Afternoon,4,0,0,NA,1,11468516,2,12,0,21/10/2015,Morning,5,0,0,NA,1,11468516,2,12,0,21/10/2015,Afternoon,6,1,0,380,1,11468516,2,12,0,22/10/2015,Morning,7,1,0,141,1,11468516,2,12,0,22/10/2015,Afternoon,8,1,1,69,1,11468516,2,12,0,23/10/2015,Morning,9,1,0,136,1,11468516,2,12,0,23/10/2015,Afternoon,10,1,0,51,1,11468516,2,12,0,26/10/2015,Morning,11,1,0,261,1,11468516,2,12,0,26/10/2015,Afternoon,12,1,0,141,1,11468516,2,12,0,27/10/2015,Morning,13,1,0,198,0,11468516,2,12,0,27/10/2015,Afternoon,14,0,0,NA,0,11468516,2,12,0,28/10/2015,Morning,15,1,0,39,0,11468516,2,12,0,28/10/2015,Afternoon,16,1,0,66,0,11468516,2,12,0,29/10/2015,Morning,17,1,0,44,0,11468516,2,12,0,29/10/2015,Afternoon,18,1,0,327,0,11468516,2,12,0,30/10/2015,Morning,19,1,0,63,0,11468516,2,12,0,30/10/2015,Afternoon,20,1,0,168,0,11468516,2,12,0,2/11/2015,Morning,21,1,0,202,0,11468516,2,12,0,2/11/2015,Afternoon,22,1,0,242,0,11468516,2,12,0,3/11/2015,Morning,23,1,0,159,0,11468516,2,12,0,3/11/2015,Afternoon,24,1,0,296,0,11468516,2,12,0,4/11/2015,Morning,25,1,0,21,0,11468516,2,12,0,4/11/2015,Afternoon,26,1,0,23,0,11468516,2,12,0,5/11/2015,Morning,27,1,0,33,0,11468516,2,12,0,5/11/2015,Afternoon,28,0,0,NA,0,11468516,2,12,0,6/11/2015,Morning,29,1,0,35,0,11468516,2,12,0,6/11/2015,Afternoon,30,0,0,NA,0,11468529,2,9,0,19/10/2015,Morning,1,1,0,102,1,11468529,2,9,0,19/10/2015,Afternoon,2,0,0,NA,1,11468529,2,9,0,20/10/2015,Morning,3,1,1,171,1,11468529,2,9,0,20/10/2015,Afternoon,4,0,0,NA,1,11468529,2,9,0,21/10/2015,Morning,5,1,0,191,1,11468529,2,9,0,21/10/2015,Afternoon,6,1,0,577,1,11468529,2,9,0,22/10/2015,Morning,7,1,0,111,1,11468529,2,9,0,22/10/2015,Afternoon,8,1,0,1274,1,11468529,2,9,0,23/10/2015,Morning,9,1,1,247,1,11468529,2,9,0,23/10/2015,Afternoon,10,0,0,NA,1,11468529,2,9,0,26/10/2015,Morning,11,0,0,NA,1,11468529,2,9,0,26/10/2015,Afternoon,12,1,0,51,1,11468529,2,9,0,27/10/2015,Morning,13,0,0,NA,1,11468529,2,9,0,27/10/2015,Afternoon,14,1,0,133,1,11468529,2,9,0,28/10/2015,Morning,15,1,0,187,1,11468529,2,9,0,28/10/2015,Afternoon,16,1,0,161,1,11468529,2,9,0,29/10/2015,Morning,17,1,0,108,1,11468529,2,9,0,29/10/2015,Afternoon,18,0,0,NA,1,11468529,2,9,0,30/10/2015,Morning,19,1,0,165,1,11468529,2,9,0,30/10/2015,Afternoon,20,1,0,308,1,11468529,2,9,0,2/11/2015,Morning,21,1,0,67,1,11468529,2,9,0,2/11/2015,Afternoon,22,1,0,233,0,11468529,2,9,0,3/11/2015,Morning,23,0,0,NA,0,11468529,2,9,0,3/11/2015,Afternoon,24,1,0,217,0,11468529,2,9,0,4/11/2015,Morning,25,1,0,343,0,11468529,2,9,0,4/11/2015,Afternoon,26,1,0,248,0,11468529,2,9,0,5/11/2015,Morning,27,1,0,137,0,11468529,2,9,0,5/11/2015,Afternoon,28,1,0,504,0,11468529,2,9,0,6/11/2015,Morning,29,1,0,58,0,11468529,2,9,0,6/11/2015,Afternoon,30,1,0,307,0,11468532,1,16,0,10/08/2015,Morning,1,1,0,87,1,11468532,1,16,0,10/08/2015,Afternoon,2,1,0,100,1,11468532,1,16,0,11/08/2015,Morning,3,0,0,NA,1,11468532,1,16,0,11/08/2015,Afternoon,4,1,0,46,1,11468532,1,16,0,14/08/2015,Morning,5,1,0,72,1,11468532,1,16,0,14/08/2015,Afternoon,6,1,1,177,1,11468532,1,16,0,17/08/2015,Morning,7,1,0,112,1,11468532,1,16,0,17/08/2015,Afternoon,8,1,0,269,1,11468532,1,16,0,18/08/2015,Morning,9,1,1,85,0,11468532,1,16,0,18/08/2015,Afternoon,10,1,0,288,0,11468532,1,16,0,19/08/2015,Morning,11,1,1,87,0,11468532,1,16,0,19/08/2015,Afternoon,12,0,0,NA,0,11468532,1,16,0,20/08/2015,Morning,13,1,0,18,0,11468532,1,16,0,20/08/2015,Afternoon,14,1,1,73,0,11468532,1,16,0,21/08/2015,Morning,15,1,0,30,0,11468532,1,16,0,21/08/2015,Afternoon,16,1,0,137,0,11468532,1,16,0,24/08/2015,Morning,17,1,1,36,0,11468532,1,16,0,24/08/2015,Afternoon,18,1,1,1363,0,11468532,1,16,0,25/08/2015,Morning,19,1,1,174,0,11468532,1,16,0,25/08/2015,Afternoon,20,1,0,1407,0,11468532,1,16,0,26/08/2015,Morning,21,1,0,155,0,11468532,1,16,0,26/08/2015,Afternoon,22,0,0,NA,0,11468532,1,16,0,27/08/2015,Morning,23,1,1,131,0,11468532,1,16,0,27/08/2015,Afternoon,24,1,0,177,0,11468532,1,16,0,28/08/2015,Morning,25,1,0,142,0,11468532,1,16,0,28/08/2015,Afternoon,26,1,0,52,0,11468535,1,12,0,10/08/2015,Morning,1,1,0,261,1,11468535,1,12,0,10/08/2015,Afternoon,2,1,0,250,1,11468535,1,12,0,11/08/2015,Morning,3,1,1,161,1,11468535,1,12,0,11/08/2015,Afternoon,4,1,0,557,1,11468535,1,12,0,14/08/2015,Morning,5,1,0,206,1,11468535,1,12,0,14/08/2015,Afternoon,6,0,0,NA,1,11468535,1,12,0,17/08/2015,Morning,7,0,0,NA,1,11468535,1,12,0,17/08/2015,Afternoon,8,1,0,193,1,11468535,1,12,0,18/08/2015,Morning,9,1,0,165,1,11468535,1,12,0,18/08/2015,Afternoon,10,1,0,54,1,11468535,1,12,0,19/08/2015,Morning,11,1,0,29,1,11468535,1,12,0,19/08/2015,Afternoon,12,1,1,333,1,11468535,1,12,0,20/08/2015,Morning,13,1,0,213,1,11468535,1,12,0,20/08/2015,Afternoon,14,1,0,134,1,11468535,1,12,0,21/08/2015,Morning,15,0,0,NA,0,11468535,1,12,0,21/08/2015,Afternoon,16,1,0,153,0,11468535,1,12,0,24/08/2015,Morning,17,1,0,125,0,11468535,1,12,0,24/08/2015,Afternoon,18,1,1,207,0,11468535,1,12,0,25/08/2015,Morning,19,1,1,54,0,11468535,1,12,0,25/08/2015,Afternoon,20,1,0,227,0,11468535,1,12,0,26/08/2015,Morning,21,1,0,73,0,11468535,1,12,0,26/08/2015,Afternoon,22,0,0,NA,0,11468535,1,12,0,27/08/2015,Morning,23,1,0,102,0,11468535,1,12,0,27/08/2015,Afternoon,24,1,0,198,0,11468535,1,12,0,28/08/2015,Morning,25,1,0,76,0,11468535,1,12,0,28/08/2015,Afternoon,26,0,0,NA,0,11468538,2,11,0,19/10/2015,Morning,1,0,0,NA,1,11468538,2,11,0,19/10/2015,Afternoon,2,0,0,161,1,11468538,2,11,0,20/10/2015,Morning,3,0,0,NA,1,11468538,2,11,0,20/10/2015,Afternoon,4,1,0,305,1,11468538,2,11,0,21/10/2015,Morning,5,1,0,225,1,11468538,2,11,0,21/10/2015,Afternoon,6,1,0,898,1,11468538,2,11,0,22/10/2015,Morning,7,0,0,NA,1,11468538,2,11,0,22/10/2015,Afternoon,8,1,0,2410,1,11468538,2,11,0,23/10/2015,Morning,9,0,0,NA,1,11468538,2,11,0,23/10/2015,Afternoon,10,1,0,166,1,11468538,2,11,0,26/10/2015,Morning,11,1,0,223,1,11468538,2,11,0,26/10/2015,Afternoon,12,1,0,305,1,11468538,2,11,0,27/10/2015,Morning,13,1,0,153,1,11468538,2,11,0,27/10/2015,Afternoon,14,1,0,198,1,11468538,2,11,0,28/10/2015,Morning,15,1,0,620,1,11468538,2,11,0,28/10/2015,Afternoon,16,1,0,197,0,11468538,2,11,0,29/10/2015,Morning,17,1,0,363,0,11468538,2,11,0,29/10/2015,Afternoon,18,0,0,NA,0,11468538,2,11,0,30/10/2015,Morning,19,1,0,237,0,11468538,2,11,0,30/10/2015,Afternoon,20,1,0,469,0,11468538,2,11,0,2/11/2015,Morning,21,0,0,NA,0,11468538,2,11,0,2/11/2015,Afternoon,22,1,0,449,0,11468538,2,11,0,3/11/2015,Morning,23,0,0,NA,0,11468538,2,11,0,3/11/2015,Afternoon,24,1,0,290,0,11468538,2,11,0,4/11/2015,Afternoon,25,0,0,NA,0,11468538,2,11,0,5/11/2015,Morning,26,0,0,NA,0,11468538,2,11,0,5/11/2015,Afternoon,27,1,0,402,0,11468538,2,11,0,6/11/2015,Morning,28,0,0,NA,0,11468538,2,11,0,6/11/2015,Afternoon,29,1,0,789,0,11468549,1,1,1,10/08/2015,Morning,1,1,0,403,1,11468549,1,1,1,10/08/2015,Afternoon,2,1,0,468,1,11468549,1,1,1,11/08/2015,Morning,3,1,0,827,1,11468549,1,1,1,11/08/2015,Afternoon,4,1,0,282,1,11468549,1,1,1,14/08/2015,Morning,5,1,1,661,1,11468549,1,1,1,14/08/2015,Afternoon,6,1,0,474,1,11468549,1,1,1,17/08/2015,Morning,7,0,0,NA,1,11468549,1,1,1,17/08/2015,Afternoon,8,0,0,NA,1,11468549,1,1,1,18/08/2015,Morning,9,1,0,1062,1,11468549,1,1,1,18/08/2015,Afternoon,10,1,0,171,1,11468549,1,1,1,19/08/2015,Morning,11,1,0,766,1,11468549,1,1,1,19/08/2015,Afternoon,12,1,0,531,1,11468549,1,1,1,20/08/2015,Morning,13,1,1,713,1,11468549,1,1,1,20/08/2015,Afternoon,14,1,0,397,1,11468549,1,1,1,21/08/2015,Morning,15,1,1,449,1,11468549,1,1,1,21/08/2015,Afternoon,16,1,0,536,0,11468549,1,1,1,24/08/2015,Morning,17,1,0,142,0,11468549,1,1,1,24/08/2015,Afternoon,18,1,1,181,0,11468549,1,1,1,25/08/2015,Morning,19,1,1,194,0,11468549,1,1,1,25/08/2015,Afternoon,20,0,0,NA,0,11468549,1,1,1,26/08/2015,Morning,21,1,0,247,0,11468549,1,1,1,26/08/2015,Afternoon,22,1,0,291,0,11468549,1,1,1,27/08/2015,Morning,23,0,0,NA,0,11468549,1,1,1,27/08/2015,Afternoon,24,0,0,NA,0,11468549,1,1,1,28/08/2015,Morning,25,1,0,318,0,11468549,1,1,1,28/08/2015,Afternoon,26,0,0,NA,0,11469178,2,6,0,19/10/2015,Morning,1,0,0,NA,1,11469178,2,6,0,19/10/2015,Afternoon,2,1,0,297,1,11469178,2,6,0,20/10/2015,Morning,3,0,0,NA,1,11469178,2,6,0,20/10/2015,Afternoon,4,0,0,NA,1,11469178,2,6,0,21/10/2015,Morning,5,1,0,849,1,11469178,2,6,0,21/10/2015,Afternoon,6,0,0,NA,1,11469178,2,6,0,22/10/2015,Morning,7,1,0,1347,1,11469178,2,6,0,22/10/2015,Afternoon,8,0,0,NA,1,11469178,2,6,0,23/10/2015,Morning,9,0,0,NA,1,11469178,2,6,0,23/10/2015,Afternoon,10,0,0,NA,1,11469178,2,6,0,26/10/2015,Morning,11,0,0,NA,1,11469178,2,6,0,26/10/2015,Afternoon,12,0,0,NA,1,11469178,2,6,0,27/10/2015,Morning,13,1,0,485,1,11469178,2,6,0,27/10/2015,Afternoon,14,1,0,479,1,11469178,2,6,0,28/10/2015,Morning,15,1,0,497,1,11469178,2,6,0,28/10/2015,Afternoon,16,0,0,NA,1,11469178,2,6,0,29/10/2015,Morning,17,0,0,NA,1,11469178,2,6,0,29/10/2015,Afternoon,18,0,0,NA,1,11469178,2,6,0,30/10/2015,Morning,19,1,0,431,1,11469178,2,6,0,30/10/2015,Afternoon,20,1,0,500,1,11469178,2,6,0,2/11/2015,Morning,21,0,0,NA,1,11469178,2,6,0,2/11/2015,Afternoon,22,1,0,166,1,11469178,2,6,0,3/11/2015,Morning,23,1,0,743,1,11469178,2,6,0,3/11/2015,Afternoon,24,1,0,296,1,11469178,2,6,0,4/11/2015,Morning,25,1,0,113,1,11469178,2,6,0,4/11/2015,Afternoon,26,1,0,221,1,11469178,2,6,0,5/11/2015,Morning,27,1,0,148,0,11469178,2,6,0,5/11/2015,Afternoon,28,1,0,352,0,11469178,2,6,0,6/11/2015,Morning,29,0,0,NA,0,11469178,2,6,0,6/11/2015,Afternoon,30,0,0,NA,0,11469218,1,14,0,10/08/2015,Morning,1,1,0,58,1,11469218,1,14,0,10/08/2015,Afternoon,2,1,0,141,1,11469218,1,14,0,11/08/2015,Morning,3,0,0,NA,1,11469218,1,14,0,11/08/2015,Afternoon,4,1,0,319,1,11469218,1,14,0,14/08/2015,Morning,5,1,0,161,1,11469218,1,14,0,14/08/2015,Afternoon,6,1,0,195,1,11469218,1,14,0,17/08/2015,Morning,7,1,0,280,1,11469218,1,14,0,17/08/2015,Afternoon,8,1,0,185,1,11469218,1,14,0,18/08/2015,Morning,9,1,0,236,0,11469218,1,14,0,18/08/2015,Afternoon,10,1,0,162,0,11469218,1,14,0,19/08/2015,Morning,11,1,0,147,0,11469218,1,14,0,19/08/2015,Afternoon,12,1,0,281,0,11469218,1,14,0,20/08/2015,Morning,13,1,0,246,0,11469218,1,14,0,20/08/2015,Afternoon,14,1,1,441,0,11469218,1,14,0,21/08/2015,Morning,15,1,0,163,0,11469218,1,14,0,21/08/2015,Afternoon,16,1,0,343,0,11469218,1,14,0,24/08/2015,Morning,17,1,0,183,0,11469218,1,14,0,24/08/2015,Afternoon,18,1,1,88,0,11469218,1,14,0,25/08/2015,Morning,19,1,1,106,0,11469218,1,14,0,25/08/2015,Afternoon,20,1,0,162,0,11469218,1,14,0,26/08/2015,Morning,21,1,0,148,0,11469218,1,14,0,26/08/2015,Afternoon,22,1,0,310,0,11469218,1,14,0,27/08/2015,Morning,23,1,0,233,0,11469218,1,14,0,27/08/2015,Afternoon,24,1,0,97,0,11469218,1,14,0,28/08/2015,Morning,25,1,0,184,0,11469218,1,14,0,28/08/2015,Afternoon,26,1,0,38,0,11469222,2,3,1,19/10/2015,Morning,1,1,0,620,1,11469222,2,3,1,19/10/2015,Afternoon,2,1,0,319,1,11469222,2,3,1,20/10/2015,Morning,3,1,0,65,1,11469222,2,3,1,20/10/2015,Afternoon,4,1,0,698,1,11469222,2,3,1,21/10/2015,Morning,5,1,0,510,1,11469222,2,3,1,21/10/2015,Afternoon,6,1,0,629,1,11469222,2,3,1,22/10/2015,Morning,7,1,0,45,1,11469222,2,3,1,22/10/2015,Afternoon,8,1,0,352,1,11469222,2,3,1,23/10/2015,Morning,9,0,0,NA,0,11469222,2,3,1,23/10/2015,Afternoon,10,1,0,531,0,11469222,2,3,1,26/10/2015,Morning,11,1,0,2527,0,11469222,2,3,1,26/10/2015,Afternoon,12,0,0,NA,0,11469222,2,3,1,27/10/2015,Morning,13,1,0,53,0,11469222,2,3,1,27/10/2015,Afternoon,14,1,0,896,0,11469222,2,3,1,28/10/2015,Morning,15,0,0,NA,0,11469222,2,3,1,28/10/2015,Afternoon,16,1,0,3051,0,11469222,2,3,1,29/10/2015,Morning,17,0,0,NA,0,11469222,2,3,1,29/10/2015,Afternoon,18,0,0,NA,0,11469222,2,3,1,30/10/2015,Morning,19,1,0,147,0,11469222,2,3,1,30/10/2015,Afternoon,20,1,0,968,0,11469222,2,3,1,2/11/2015,Morning,21,0,0,NA,0,11469222,2,3,1,2/11/2015,Afternoon,22,0,0,NA,0,11469222,2,3,1,3/11/2015,Morning,23,1,0,1513,0,11469222,2,3,1,3/11/2015,Afternoon,24,1,0,597,0,11469222,2,3,1,4/11/2015,Morning,25,1,0,81,0,11469222,2,3,1,4/11/2015,Afternoon,26,1,0,487,0,11469222,2,3,1,5/11/2015,Morning,27,0,0,NA,0,11469222,2,3,1,5/11/2015,Afternoon,28,0,0,NA,0,11469222,2,3,1,6/11/2015,Morning,29,0,0,NA,0,11469222,2,3,1,6/11/2015,Afternoon,30,1,0,982,0,11469223,1,11,1,10/08/2015,Morning,1,1,0,502,1,11469223,1,11,1,10/08/2015,Afternoon,2,1,0,359,1,11469223,1,11,1,11/08/2015,Morning,3,1,1,137,1,11469223,1,11,1,11/08/2015,Afternoon,4,1,0,299,1,11469223,1,11,1,14/08/2015,Morning,5,1,0,163,1,11469223,1,11,1,14/08/2015,Afternoon,6,1,0,139,1,11469223,1,11,1,17/08/2015,Morning,7,1,0,244,1,11469223,1,11,1,17/08/2015,Afternoon,8,1,1,250,1,11469223,1,11,1,18/08/2015,Morning,9,1,0,397,0,11469223,1,11,1,18/08/2015,Afternoon,10,1,0,417,0,11469223,1,11,1,19/08/2015,Morning,11,1,0,212,0,11469223,1,11,1,19/08/2015,Afternoon,12,1,1,161,0,11469223,1,11,1,20/08/2015,Morning,13,1,0,275,0,11469223,1,11,1,20/08/2015,Afternoon,14,1,0,109,0,11469223,1,11,1,21/08/2015,Morning,15,1,1,620,0,11469223,1,11,1,21/08/2015,Afternoon,16,1,0,142,0,11469223,1,11,1,24/08/2015,Morning,17,1,1,333,0,11469223,1,11,1,24/08/2015,Afternoon,18,1,1,100,0,11469223,1,11,1,25/08/2015,Morning,19,1,1,484,0,11469223,1,11,1,25/08/2015,Afternoon,20,0,0,NA,0,11469223,1,11,1,26/08/2015,Morning,21,0,0,NA,0,11469223,1,11,1,26/08/2015,Afternoon,22,0,0,NA,0,11469223,1,11,1,27/08/2015,Morning,23,0,0,NA,0,11469223,1,11,1,27/08/2015,Afternoon,24,1,0,338,0,11469223,1,11,1,28/08/2015,Morning,25,1,0,296,0,11469223,1,11,1,28/08/2015,Afternoon,26,0,0,NA,0,11469229,1,3,1,10/08/2015,Morning,1,1,1,611,1,11469229,1,3,1,10/08/2015,Afternoon,2,1,0,1633,1,11469229,1,3,1,11/08/2015,Morning,3,1,1,695,1,11469229,1,3,1,11/08/2015,Afternoon,4,0,0,NA,1,11469229,1,3,1,14/08/2015,Morning,5,1,0,833,1,11469229,1,3,1,14/08/2015,Afternoon,6,1,1,699,1,11469229,1,3,1,17/08/2015,Morning,7,1,1,363,1,11469229,1,3,1,17/08/2015,Afternoon,8,1,0,355,1,11469229,1,3,1,18/08/2015,Morning,9,1,0,1153,0,11469229,1,3,1,18/08/2015,Afternoon,10,0,0,NA,0,11469229,1,3,1,19/08/2015,Morning,11,1,0,211,0,11469229,1,3,1,19/08/2015,Afternoon,12,0,0,NA,0,11469229,1,3,1,20/08/2015,Morning,13,1,0,189,0,11469229,1,3,1,20/08/2015,Afternoon,14,1,0,461,0,11469229,1,3,1,21/08/2015,Morning,15,1,0,774,0,11469229,1,3,1,21/08/2015,Afternoon,16,1,0,548,0,11469229,1,3,1,24/08/2015,Morning,17,1,1,383,0,11469229,1,3,1,24/08/2015,Afternoon,18,1,1,477,0,11469229,1,3,1,25/08/2015,Morning,19,1,1,473,0,11469229,1,3,1,25/08/2015,Afternoon,20,1,0,178,0,11469229,1,3,1,26/08/2015,Morning,21,1,0,644,0,11469229,1,3,1,26/08/2015,Afternoon,22,1,0,1274,0,11469229,1,3,1,27/08/2015,Morning,23,1,0,920,0,11469229,1,3,1,27/08/2015,Afternoon,24,1,0,178,0,11469229,1,3,1,28/08/2015,Morning,25,1,0,765,0,11469229,1,3,1,28/08/2015,Afternoon,26,1,0,1078,0,11469703,1,5,1,24/08/2015,Morning,1,1,1,118,1,11469703,1,5,1,24/08/2015,Afternoon,2,1,1,36,1,11469703,1,5,1,25/08/2015,Morning,3,1,1,282,1,11469703,1,5,1,25/08/2015,Afternoon,4,1,1,200,1,11469703,1,5,1,26/08/2015,Morning,5,0,0,NA,1,11469703,1,5,1,26/08/2015,Afternoon,6,1,0,569,1,11469703,1,5,1,27/08/2015,Morning,7,1,0,212,1,11469703,1,5,1,27/08/2015,Afternoon,8,1,0,811,1,11469703,1,5,1,28/08/2015,Morning,9,1,0,249,0,11469703,1,5,1,31/08/2015,Morning,10,1,0,324,0,11469703,1,5,1,2/09/2015,Morning,11,1,0,368,0,11469703,1,5,1,3/09/2015,Morning,12,1,0,662,0,11469703,1,5,1,4/09/2015,Morning,13,1,0,161,0,11469703,1,5,1,7/09/2015,Morning,14,1,1,2813,0,11469703,1,5,1,8/09/2015,Morning,15,1,0,845,0,11469703,1,5,1,9/09/2015,Morning,16,1,0,155,0,11469703,1,5,1,11/09/2015,Morning,17,1,1,573,0,11470760,2,5,0,19/10/2015,Morning,1,1,0,130,1,11470760,2,5,0,19/10/2015,Afternoon,2,1,0,93,1,11470760,2,5,0,20/10/2015,Morning,3,0,0,NA,1,11470760,2,5,0,20/10/2015,Afternoon,4,0,0,NA,1,11470760,2,5,0,21/10/2015,Morning,5,1,0,144,1,11470760,2,5,0,21/10/2015,Afternoon,6,0,0,NA,1,11470760,2,5,0,22/10/2015,Morning,7,1,0,22,1,11470760,2,5,0,22/10/2015,Afternoon,8,1,0,702,1,11470760,2,5,0,23/10/2015,Morning,9,1,0,20,1,11470760,2,5,0,23/10/2015,Afternoon,10,1,0,24,1,11470760,2,5,0,26/10/2015,Morning,11,1,0,100,1,11470760,2,5,0,26/10/2015,Afternoon,12,1,0,252,1,11470760,2,5,0,27/10/2015,Morning,13,1,0,310,0,11470760,2,5,0,27/10/2015,Afternoon,14,1,0,74,0,11470760,2,5,0,28/10/2015,Morning,15,1,0,17,0,11470760,2,5,0,28/10/2015,Afternoon,16,1,0,54,0,11470760,2,5,0,29/10/2015,Morning,17,1,0,80,0,11470760,2,5,0,29/10/2015,Afternoon,18,1,0,78,0,11470760,2,5,0,30/10/2015,Morning,19,1,0,52,0,11470760,2,5,0,30/10/2015,Afternoon,20,1,0,698,0,11470760,2,5,0,2/11/2015,Morning,21,1,0,61,0,11470760,2,5,0,2/11/2015,Afternoon,22,1,0,877,0,11470760,2,5,0,3/11/2015,Morning,23,1,0,267,0,11470760,2,5,0,3/11/2015,Afternoon,24,0,0,NA,0,11470760,2,5,0,4/11/2015,Morning,25,0,0,NA,0,11470760,2,5,0,4/11/2015,Afternoon,26,1,0,73,0,11470760,2,5,0,5/11/2015,Morning,27,1,0,119,0,11470760,2,5,0,5/11/2015,Afternoon,28,1,0,77,0,11470760,2,5,0,6/11/2015,Morning,29,0,0,NA,0,11470760,2,5,0,6/11/2015,Afternoon,30,1,0,232,0,13368899,1,19,0,10/08/2015,Morning,1,1,0,1425,1,13368899,1,19,0,10/08/2015,Afternoon,2,1,0,1147,1,13368899,1,19,0,11/08/2015,Morning,3,1,1,690,1,13368899,1,19,0,11/08/2015,Afternoon,4,0,0,NA,1,13368899,1,19,0,14/08/2015,Morning,5,1,0,414,1,13368899,1,19,0,14/08/2015,Afternoon,6,1,0,778,1,13368899,1,19,0,17/08/2015,Morning,7,1,1,523,1,13368899,1,19,0,17/08/2015,Afternoon,8,1,0,1399,1,13368899,1,19,0,18/08/2015,Morning,9,1,0,446,0,13368899,1,19,0,18/08/2015,Afternoon,10,1,0,783,0,13368899,1,19,0,19/08/2015,Morning,11,0,0,NA,0,13368899,1,19,0,19/08/2015,Afternoon,12,1,0,4071,0,13368899,1,19,0,20/08/2015,Morning,13,0,0,NA,0,13368899,1,19,0,20/08/2015,Afternoon,14,1,0,856,0,13368899,1,19,0,21/08/2015,Morning,15,1,0,375,0,13368899,1,19,0,21/08/2015,Afternoon,16,1,1,916,0,13368899,1,19,0,24/08/2015,Morning,17,1,1,165,0,13368899,1,19,0,24/08/2015,Afternoon,18,1,1,3410,0,13368899,1,19,0,25/08/2015,Morning,19,1,1,776,0,13368899,1,19,0,25/08/2015,Afternoon,20,1,1,548,0,13368899,1,19,0,26/08/2015,Morning,21,0,0,NA,0,13368899,1,19,0,26/08/2015,Afternoon,22,1,0,986,0,13368899,1,19,0,27/08/2015,Morning,23,0,0,NA,0,13368899,1,19,0,27/08/2015,Afternoon,24,1,1,990,0,13368899,1,19,0,28/08/2015,Morning,25,0,0,NA,0,13368899,1,19,0,28/08/2015,Afternoon,26,1,0,1179,0,13369769,2,2,1,19/10/2015,Morning,1,1,0,302,1,13369769,2,2,1,19/10/2015,Afternoon,2,1,0,548,1,13369769,2,2,1,20/10/2015,Morning,3,1,0,824,1,13369769,2,2,1,20/10/2015,Afternoon,4,1,0,353,1,13369769,2,2,1,21/10/2015,Morning,5,1,0,599,1,13369769,2,2,1,21/10/2015,Afternoon,6,1,0,221,1,13369769,2,2,1,22/10/2015,Morning,7,1,0,144,1,13369769,2,2,1,22/10/2015,Afternoon,8,1,0,232,1,13369769,2,2,1,23/10/2015,Morning,9,1,0,296,0,13369769,2,2,1,23/10/2015,Afternoon,10,1,0,657,0,13369769,2,2,1,26/10/2015,Morning,11,1,0,56,0,13369769,2,2,1,26/10/2015,Afternoon,12,1,0,148,0,13369769,2,2,1,27/10/2015,Morning,13,1,0,71,0,13369769,2,2,1,27/10/2015,Afternoon,14,1,0,70,0,13369769,2,2,1,28/10/2015,Morning,15,1,0,34,0,13369769,2,2,1,28/10/2015,Afternoon,16,1,0,162,0,13369769,2,2,1,29/10/2015,Morning,17,1,0,66,0,13369769,2,2,1,29/10/2015,Afternoon,18,1,0,149,0,13369769,2,2,1,30/10/2015,Morning,19,1,0,27,0,13369769,2,2,1,30/10/2015,Afternoon,20,1,0,156,0,13369769,2,2,1,2/11/2015,Morning,21,1,0,56,0,13369769,2,2,1,2/11/2015,Afternoon,22,1,0,43,0,13369769,2,2,1,3/11/2015,Morning,23,1,0,29,0,13369769,2,2,1,3/11/2015,Afternoon,24,1,0,59,0,13369769,2,2,1,4/11/2015,Morning,25,0,0,NA,0,13369769,2,2,1,4/11/2015,Afternoon,26,1,0,71,0,13369769,2,2,1,5/11/2015,Morning,27,1,0,27,0,13369769,2,2,1,5/11/2015,Afternoon,28,1,0,114,0,13369769,2,2,1,6/11/2015,Morning,29,1,0,766,0,13369769,2,2,1,6/11/2015,Afternoon,30,1,0,90,0,13371239,2,8,0,19/10/2015,Morning,1,0,0,NA,1,13371239,2,8,0,19/10/2015,Afternoon,2,0,0,NA,1,13371239,2,8,0,20/10/2015,Morning,3,1,0,144,1,13371239,2,8,0,20/10/2015,Afternoon,4,1,0,539,1,13371239,2,8,0,21/10/2015,Morning,5,1,0,106,1,13371239,2,8,0,21/10/2015,Afternoon,6,1,0,342,1,13371239,2,8,0,22/10/2015,Morning,7,0,0,NA,1,13371239,2,8,0,22/10/2015,Afternoon,8,1,0,216,1,13371239,2,8,0,23/10/2015,Morning,9,1,0,357,1,13371239,2,8,0,23/10/2015,Afternoon,10,1,0,286,1,13371239,2,8,0,26/10/2015,Morning,11,0,0,NA,0,13371239,2,8,0,26/10/2015,Afternoon,12,1,0,394,0,13371239,2,8,0,27/10/2015,Morning,13,1,0,161,0,13371239,2,8,0,27/10/2015,Afternoon,14,1,0,405,0,13371239,2,8,0,28/10/2015,Morning,15,1,0,160,0,13371239,2,8,0,28/10/2015,Afternoon,16,1,0,402,0,13371239,2,8,0,29/10/2015,Morning,17,1,0,299,0,13371239,2,8,0,29/10/2015,Afternoon,18,1,0,271,0,13371239,2,8,0,30/10/2015,Morning,19,1,0,169,0,13371239,2,8,0,30/10/2015,Afternoon,20,1,0,428,0,13371239,2,8,0,2/11/2015,Morning,21,1,0,192,0,13371239,2,8,0,2/11/2015,Afternoon,22,1,0,119,0,13371239,2,8,0,3/11/2015,Morning,23,1,0,138,0,13371239,2,8,0,3/11/2015,Afternoon,24,1,0,342,0,13371239,2,8,0,4/11/2015,Morning,25,1,0,65,0,13371239,2,8,0,4/11/2015,Afternoon,26,0,0,NA,0,13371239,2,8,0,5/11/2015,Morning,27,1,0,114,0,13371239,2,8,0,5/11/2015,Afternoon,28,1,0,317,0,13371239,2,8,0,6/11/2015,Morning,29,1,0,269,0,13371239,2,8,0,6/11/2015,Afternoon,30,1,0,447,0,13371916,2,10,0,19/10/2015,Morning,1,0,0,NA,1,13371916,2,10,0,19/10/2015,Afternoon,2,1,0,121,1,13371916,2,10,0,20/10/2015,Morning,3,1,0,135,1,13371916,2,10,0,20/10/2015,Afternoon,4,1,0,217,1,13371916,2,10,0,21/10/2015,Morning,5,1,0,204,1,13371916,2,10,0,21/10/2015,Afternoon,6,0,0,NA,1,13371916,2,10,0,22/10/2015,Morning,7,1,0,84,1,13371916,2,10,0,22/10/2015,Afternoon,8,1,0,138,1,13371916,2,10,0,23/10/2015,Morning,9,1,0,144,1,13371916,2,10,0,23/10/2015,Afternoon,10,0,0,NA,0,13371916,2,10,0,26/10/2015,Morning,11,1,0,135,0,13371916,2,10,0,26/10/2015,Afternoon,12,1,0,186,0,13371916,2,10,0,27/10/2015,Morning,13,0,0,NA,0,13371916,2,10,0,27/10/2015,Afternoon,14,1,0,141,0,13371916,2,10,0,28/10/2015,Morning,15,1,0,38,0,13371916,2,10,0,28/10/2015,Afternoon,16,0,0,NA,0,13371916,2,10,0,29/10/2015,Morning,17,1,0,23,0,13371916,2,10,0,29/10/2015,Afternoon,18,1,0,95,0,13371916,2,10,0,30/10/2015,Morning,19,1,0,83,0,13371916,2,10,0,30/10/2015,Afternoon,20,0,0,NA,0,13371916,2,10,0,2/11/2015,Morning,21,1,0,96,0,13371916,2,10,0,2/11/2015,Afternoon,22,1,0,128,0,13371916,2,10,0,3/11/2015,Morning,23,1,0,131,0,13371916,2,10,0,3/11/2015,Afternoon,24,1,0,342,0,13371916,2,10,0,4/11/2015,Morning,25,1,0,78,0,13371916,2,10,0,4/11/2015,Afternoon,26,1,0,172,0,13371916,2,10,0,5/11/2015,Morning,27,1,0,144,0,13371916,2,10,0,5/11/2015,Afternoon,28,1,0,128,0,13371916,2,10,0,6/11/2015,Morning,29,1,0,29,0,13371916,2,10,0,6/11/2015,Afternoon,30,1,0,235,0,13372126,2,1,1,19/10/2015,Morning,1,1,0,400,1,13372126,2,1,1,19/10/2015,Afternoon,2,1,0,1087,1,13372126,2,1,1,20/10/2015,Morning,3,1,0,398,1,13372126,2,1,1,20/10/2015,Afternoon,4,0,0,NA,1,13372126,2,1,1,21/10/2015,Morning,5,1,0,94,1,13372126,2,1,1,21/10/2015,Afternoon,6,1,0,653,1,13372126,2,1,1,22/10/2015,Morning,7,0,0,NA,1,13372126,2,1,1,22/10/2015,Afternoon,8,1,0,281,1,13372126,2,1,1,23/10/2015,Morning,9,1,0,59,1,13372126,2,1,1,23/10/2015,Afternoon,10,0,0,NA,1,13372126,2,1,1,26/10/2015,Morning,11,1,0,95,1,13372126,2,1,1,26/10/2015,Afternoon,12,1,0,352,1,13372126,2,1,1,27/10/2015,Morning,13,1,0,385,1,13372126,2,1,1,27/10/2015,Afternoon,14,1,0,359,1,13372126,2,1,1,28/10/2015,Morning,15,1,0,68,1,13372126,2,1,1,28/10/2015,Afternoon,16,1,0,230,0,13372126,2,1,1,29/10/2015,Morning,17,1,0,454,0,13372126,2,1,1,29/10/2015,Afternoon,18,1,0,1065,0,13372126,2,1,1,30/10/2015,Morning,19,0,0,NA,0,13372126,2,1,1,30/10/2015,Afternoon,20,0,0,NA,0,13372126,2,1,1,2/11/2015,Morning,21,1,0,151,0,13372126,2,1,1,2/11/2015,Afternoon,22,1,0,136,0,13372126,2,1,1,3/11/2015,Morning,23,0,0,NA,0,13372126,2,1,1,3/11/2015,Afternoon,24,1,0,276,0,13372126,2,1,1,4/11/2015,Morning,25,0,0,NA,0,13372126,2,1,1,4/11/2015,Afternoon,26,0,0,NA,0,13372126,2,1,1,5/11/2015,Morning,27,1,0,169,0,13372126,2,1,1,5/11/2015,Afternoon,28,0,0,NA,0,13372126,2,1,1,6/11/2015,Morning,29,1,0,191,0,13372126,2,1,1,6/11/2015,Afternoon,30,0,0,NA,0,13374160,2,4,1,19/10/2015,Morning,1,1,0,735,1,13374160,2,4,1,19/10/2015,Afternoon,2,1,0,1613,1,13374160,2,4,1,20/10/2015,Morning,3,0,0,NA,1,13374160,2,4,1,20/10/2015,Afternoon,4,1,0,1105,1,13374160,2,4,1,21/10/2015,Morning,5,1,0,1462,1,13374160,2,4,1,21/10/2015,Afternoon,6,1,0,928,1,13374160,2,4,1,22/10/2015,Morning,7,1,0,779,1,13374160,2,4,1,23/10/2015,Morning,8,1,0,389,1,13374160,2,4,1,23/10/2015,Afternoon,9,0,0,NA,0,13374160,2,4,1,26/10/2015,Morning,10,1,0,555,0,13374160,2,4,1,26/10/2015,Afternoon,11,0,0,NA,0,13374160,2,4,1,27/10/2015,Morning,12,1,0,841,0,13374160,2,4,1,27/10/2015,Afternoon,13,1,0,757,0,13374160,2,4,1,28/10/2015,Morning,14,0,0,NA,0,13374160,2,4,1,28/10/2015,Afternoon,15,1,0,1258,0,13374160,2,4,1,29/10/2015,Morning,16,1,0,1183,0,13374160,2,4,1,29/10/2015,Afternoon,17,0,0,NA,0,13374160,2,4,1,30/10/2015,Morning,18,1,0,872,0,13374160,2,4,1,2/11/2015,Morning,19,0,0,NA,0,13374160,2,4,1,2/11/2015,Afternoon,20,1,0,399,0,13374160,2,4,1,3/11/2015,Morning,21,1,0,930,0,13374160,2,4,1,4/11/2015,Morning,22,0,0,NA,0,13374160,2,4,1,4/11/2015,Afternoon,23,0,0,NA,0,13374160,2,4,1,5/11/2015,Morning,24,1,0,468,0,13374160,2,4,1,5/11/2015,Afternoon,25,1,0,328,0,13374160,2,4,1,6/11/2015,Morning,26,1,0,1460,0,13374160,2,4,1,6/11/2015,Afternoon,27,0,0,NA,0,13374264,1,7,1,24/08/2015,Morning,1,1,1,430,1,13374264,1,7,1,24/08/2015,Afternoon,2,1,1,167,1,13374264,1,7,1,25/08/2015,Morning,3,1,0,367,1,13374264,1,7,1,25/08/2015,Afternoon,4,1,0,135,1,13374264,1,7,1,26/08/2015,Morning,5,1,0,590,1,13374264,1,7,1,26/08/2015,Afternoon,6,0,0,NA,1,13374264,1,7,1,27/08/2015,Morning,7,1,0,620,1,13374264,1,7,1,27/08/2015,Afternoon,8,1,0,943,1,13374264,1,7,1,28/08/2015,Morning,9,1,0,558,0,13374264,1,7,1,28/08/2015,Afternoon,10,0,0,NA,0,13374264,1,7,1,31/08/2015,Morning,11,1,0,1199,0,13374264,1,7,1,31/08/2015,Afternoon,12,0,0,NA,0,13374264,1,7,1,1/09/2015,Morning,13,1,0,301,0,13374264,1,7,1,1/09/2015,Afternoon,14,1,0,543,0,13374264,1,7,1,2/09/2015,Morning,15,0,0,NA,0,13374264,1,7,1,3/09/2015,Morning,16,0,0,NA,0,13374264,1,7,1,4/09/2015,Morning,17,1,0,305,0,13374264,1,7,1,4/09/2015,Afternoon,18,0,0,NA,0,13374264,1,7,1,7/09/2015,Morning,19,0,0,NA,0,13374264,1,7,1,8/09/2015,Morning,20,1,0,159,0,13374264,1,7,1,8/09/2015,Afternoon,21,1,0,814,0,13374264,1,7,1,9/09/2015,Morning,22,1,0,1587,0,13374264,1,7,1,10/09/2015,Morning,23,0,0,NA,0,13374264,1,7,1,11/09/2015,Morning,24,0,0,NA,0,1