"","X","TubID","LizardID","Treatment","Date","Time","Trial","Correct","Choose.only.correct.dish","Latency","lt","learnt"
"1",1,1,"1468549","SL",2015-08-10,"Morning",1,1,0,403,1,1
"2",2,1,"1468549","SL",2015-08-10,"Afternoon",2,1,0,468,1,1
"3",3,1,"1468549","SL",2015-08-11,"Morning",3,1,0,827,1,1
"4",4,1,"1468549","SL",2015-08-11,"Afternoon",4,1,0,282,1,1
"5",5,1,"1468549","SL",2015-08-14,"Morning",5,1,1,661,1,1
"6",6,1,"1468549","SL",2015-08-14,"Afternoon",6,1,0,474,1,1
"7",7,1,"1468549","SL",2015-08-17,"Morning",7,0,0,NA,1,1
"8",8,1,"1468549","SL",2015-08-17,"Afternoon",8,0,0,NA,0,1
"9",9,1,"1468549","SL",2015-08-18,"Morning",9,1,0,1062,0,1
"10",10,1,"1468549","SL",2015-08-18,"Afternoon",10,1,0,171,0,1
"11",11,1,"1468549","SL",2015-08-19,"Morning",11,1,0,766,0,1
"12",12,1,"1468549","SL",2015-08-19,"Afternoon",12,1,0,531,0,1
"13",13,1,"1468549","SL",2015-08-20,"Morning",13,1,1,713,0,1
"14",14,1,"1468549","SL",2015-08-20,"Afternoon",14,1,0,397,0,1
"15",15,1,"1468549","SL",2015-08-21,"Morning",15,1,1,449,0,1
"16",16,1,"1468549","SL",2015-08-21,"Afternoon",16,1,0,536,0,1
"17",17,1,"1468549","SL",2015-08-24,"Morning",17,1,0,142,0,1
"18",18,1,"1468549","SL",2015-08-24,"Afternoon",18,1,1,181,0,1
"19",19,1,"1468549","SL",2015-08-25,"Morning",19,1,1,194,0,1
"20",20,1,"1468549","SL",2015-08-25,"Afternoon",20,0,0,NA,0,1
"21",21,1,"1468549","SL",2015-08-26,"Morning",21,1,0,247,0,1
"22",22,1,"1468549","SL",2015-08-26,"Afternoon",22,1,0,291,0,1
"23",23,1,"1468549","SL",2015-08-27,"Morning",23,0,0,NA,0,1
"24",24,1,"1468549","SL",2015-08-27,"Afternoon",24,0,0,NA,0,1
"25",25,1,"1468549","SL",2015-08-28,"Morning",25,1,0,318,0,1
"26",26,1,"1468549","SL",2015-08-28,"Afternoon",26,0,0,NA,0,1
"27",27,2,"1468506","SL",2015-08-10,"Morning",1,0,0,NA,1,1
"28",28,2,"1468506","SL",2015-08-10,"Afternoon",2,1,0,169,1,1
"29",29,2,"1468506","SL",2015-08-11,"Morning",3,1,0,244,1,1
"30",30,2,"1468506","SL",2015-08-11,"Afternoon",4,1,0,143,1,1
"31",31,2,"1468506","SL",2015-08-14,"Morning",5,1,1,91,1,1
"32",32,2,"1468506","SL",2015-08-14,"Afternoon",6,1,0,163,1,1
"33",33,2,"1468506","SL",2015-08-17,"Morning",7,1,0,31,1,1
"34",34,2,"1468506","SL",2015-08-17,"Afternoon",8,1,0,99,0,1
"35",35,2,"1468506","SL",2015-08-18,"Morning",9,1,1,162,0,1
"36",36,2,"1468506","SL",2015-08-18,"Afternoon",10,1,0,54,0,1
"37",37,2,"1468506","SL",2015-08-19,"Morning",11,1,0,78,0,1
"38",38,2,"1468506","SL",2015-08-19,"Afternoon",12,1,0,69,0,1
"39",39,2,"1468506","SL",2015-08-20,"Morning",13,0,0,NA,0,1
"40",40,2,"1468506","SL",2015-08-20,"Afternoon",14,1,0,45,0,1
"41",41,2,"1468506","SL",2015-08-21,"Morning",15,1,0,175,0,1
"42",42,2,"1468506","SL",2015-08-21,"Afternoon",16,1,0,192,0,1
"43",43,2,"1468506","SL",2015-08-24,"Morning",17,1,1,59,0,1
"44",44,2,"1468506","SL",2015-08-24,"Afternoon",18,1,1,43,0,1
"45",45,2,"1468506","SL",2015-08-25,"Morning",19,1,1,202,0,1
"46",46,2,"1468506","SL",2015-08-25,"Afternoon",20,1,0,292,0,1
"47",47,2,"1468506","SL",2015-08-26,"Morning",21,0,0,NA,0,1
"48",48,2,"1468506","SL",2015-08-26,"Afternoon",22,0,0,NA,0,1
"49",49,2,"1468506","SL",2015-08-27,"Morning",23,1,1,92,0,1
"50",50,2,"1468506","SL",2015-08-27,"Afternoon",24,1,0,121,0,1
"51",51,2,"1468506","SL",2015-08-28,"Morning",25,1,0,117,0,1
"52",52,2,"1468506","SL",2015-08-28,"Afternoon",26,1,0,66,0,1
"53",53,3,"1469229","SL",2015-08-10,"Morning",1,1,1,611,1,1
"54",54,3,"1469229","SL",2015-08-10,"Afternoon",2,1,0,1633,1,1
"55",55,3,"1469229","SL",2015-08-11,"Morning",3,1,1,695,1,1
"56",56,3,"1469229","SL",2015-08-11,"Afternoon",4,0,0,NA,1,1
"57",57,3,"1469229","SL",2015-08-14,"Morning",5,1,0,833,1,1
"58",58,3,"1469229","SL",2015-08-14,"Afternoon",6,1,1,699,1,1
"59",59,3,"1469229","SL",2015-08-17,"Morning",7,1,1,363,1,1
"60",60,3,"1469229","SL",2015-08-17,"Afternoon",8,1,0,355,0,1
"61",61,3,"1469229","SL",2015-08-18,"Morning",9,1,0,1153,0,1
"62",62,3,"1469229","SL",2015-08-18,"Afternoon",10,0,0,NA,0,1
"63",63,3,"1469229","SL",2015-08-19,"Morning",11,1,0,211,0,1
"64",64,3,"1469229","SL",2015-08-19,"Afternoon",12,0,0,NA,0,1
"65",65,3,"1469229","SL",2015-08-20,"Morning",13,1,0,189,0,1
"66",66,3,"1469229","SL",2015-08-20,"Afternoon",14,1,0,461,0,1
"67",67,3,"1469229","SL",2015-08-21,"Morning",15,1,0,774,0,1
"68",68,3,"1469229","SL",2015-08-21,"Afternoon",16,1,0,548,0,1
"69",69,3,"1469229","SL",2015-08-24,"Morning",17,1,1,383,0,1
"70",70,3,"1469229","SL",2015-08-24,"Afternoon",18,1,1,477,0,1
"71",71,3,"1469229","SL",2015-08-25,"Morning",19,1,1,473,0,1
"72",72,3,"1469229","SL",2015-08-25,"Afternoon",20,1,0,178,0,1
"73",73,3,"1469229","SL",2015-08-26,"Morning",21,1,0,644,0,1
"74",74,3,"1469229","SL",2015-08-26,"Afternoon",22,1,0,1274,0,1
"75",75,3,"1469229","SL",2015-08-27,"Morning",23,1,0,920,0,1
"76",76,3,"1469229","SL",2015-08-27,"Afternoon",24,1,0,178,0,1
"77",77,3,"1469229","SL",2015-08-28,"Morning",25,1,0,765,0,1
"78",78,3,"1469229","SL",2015-08-28,"Afternoon",26,1,0,1078,0,1
"79",79,4,"1468502","SL",2015-08-10,"Morning",1,0,0,1651,1,1
"80",80,4,"1468502","SL",2015-08-10,"Afternoon",2,1,0,1343,1,1
"81",81,4,"1468502","SL",2015-08-11,"Morning",3,1,0,1272,1,1
"82",82,4,"1468502","SL",2015-08-11,"Afternoon",4,1,1,719,1,1
"83",83,4,"1468502","SL",2015-08-14,"Morning",5,1,0,130,1,1
"84",84,4,"1468502","SL",2015-08-14,"Afternoon",6,1,0,848,1,1
"85",85,4,"1468502","SL",2015-08-17,"Morning",7,1,0,662,1,1
"86",86,4,"1468502","SL",2015-08-17,"Afternoon",8,1,1,575,0,1
"87",87,4,"1468502","SL",2015-08-18,"Morning",9,1,1,919,0,1
"88",88,4,"1468502","SL",2015-08-18,"Afternoon",10,1,0,652,0,1
"89",89,4,"1468502","SL",2015-08-19,"Morning",11,1,1,275,0,1
"90",90,4,"1468502","SL",2015-08-19,"Afternoon",12,1,0,526,0,1
"91",91,4,"1468502","SL",2015-08-20,"Morning",13,1,1,571,0,1
"92",92,4,"1468502","SL",2015-08-20,"Afternoon",14,1,0,740,0,1
"93",93,4,"1468502","SL",2015-08-21,"Morning",15,1,0,837,0,1
"94",94,4,"1468502","SL",2015-08-21,"Afternoon",16,1,0,587,0,1
"95",95,4,"1468502","SL",2015-08-24,"Morning",17,1,1,1019,0,1
"96",96,4,"1468502","SL",2015-08-24,"Afternoon",18,1,1,853,0,1
"97",97,4,"1468502","SL",2015-08-25,"Morning",19,1,0,877,0,1
"98",98,4,"1468502","SL",2015-08-25,"Afternoon",20,1,1,513,0,1
"99",99,4,"1468502","SL",2015-08-26,"Morning",21,0,0,NA,0,1
"100",100,4,"1468502","SL",2015-08-26,"Afternoon",22,1,0,1175,0,1
"101",101,4,"1468502","SL",2015-08-27,"Morning",23,1,0,1268,0,1
"102",102,4,"1468502","SL",2015-08-27,"Afternoon",24,0,0,NA,0,1
"103",103,4,"1468502","SL",2015-08-28,"Morning",25,1,0,1207,0,1
"104",104,4,"1468502","SL",2015-08-28,"Afternoon",26,1,0,949,0,1
"105",105,5,"1469703","SL",2015-08-24,"Morning",1,1,1,118,1,1
"106",106,5,"1469703","SL",2015-08-24,"Afternoon",2,1,1,36,1,1
"107",107,5,"1469703","SL",2015-08-25,"Morning",3,1,1,282,1,1
"108",108,5,"1469703","SL",2015-08-25,"Afternoon",4,1,1,200,1,1
"109",109,5,"1469703","SL",2015-08-26,"Morning",5,0,0,NA,1,1
"110",110,5,"1469703","SL",2015-08-26,"Afternoon",6,1,0,569,1,1
"111",111,5,"1469703","SL",2015-08-27,"Morning",7,1,0,212,1,1
"112",112,5,"1469703","SL",2015-08-27,"Afternoon",8,1,0,811,0,1
"113",113,5,"1469703","SL",2015-08-28,"Morning",9,1,0,249,0,1
"115",115,5,"1469703","SL",2015-08-31,"Morning",10,1,0,324,0,1
"119",119,5,"1469703","SL",2015-09-02,"Morning",11,1,0,368,0,1
"121",121,5,"1469703","SL",2015-09-03,"Morning",12,1,0,662,0,1
"123",123,5,"1469703","SL",2015-09-04,"Morning",13,1,0,161,0,1
"125",125,5,"1469703","SL",2015-09-07,"Morning",14,1,1,2813,0,1
"127",127,5,"1469703","SL",2015-09-08,"Morning",15,1,0,845,0,1
"129",129,5,"1469703","SL",2015-09-09,"Morning",16,1,0,155,0,1
"133",133,5,"1469703","SL",2015-09-11,"Morning",17,1,1,573,0,1
"136",136,6,"1468510","SL",2015-08-10,"Afternoon",1,0,0,NA,1,1
"137",137,6,"1468510","SL",2015-08-11,"Morning",2,0,0,NA,1,1
"139",139,6,"1468510","SL",2015-08-14,"Morning",3,0,0,NA,1,1
"141",141,6,"1468510","SL",2015-08-17,"Morning",4,1,0,206,1,1
"143",143,6,"1468510","SL",2015-08-18,"Morning",5,1,0,308,1,1
"144",144,6,"1468510","SL",2015-08-18,"Afternoon",6,1,0,292,1,1
"145",145,6,"1468510","SL",2015-08-19,"Morning",7,1,0,137,1,1
"146",146,6,"1468510","SL",2015-08-19,"Afternoon",8,1,0,126,1,1
"147",147,6,"1468510","SL",2015-08-20,"Morning",9,1,0,119,1,1
"148",148,6,"1468510","SL",2015-08-20,"Afternoon",10,1,0,89,0,1
"149",149,6,"1468510","SL",2015-08-21,"Morning",11,1,0,52,0,1
"150",150,6,"1468510","SL",2015-08-21,"Afternoon",12,0,0,NA,0,1
"151",151,6,"1468510","SL",2015-08-24,"Morning",13,1,1,997,0,1
"152",152,6,"1468510","SL",2015-08-24,"Afternoon",14,1,0,1075,0,1
"153",153,6,"1468510","SL",2015-08-25,"Morning",15,1,1,899,0,1
"154",154,6,"1468510","SL",2015-08-25,"Afternoon",16,1,0,554,0,1
"155",155,6,"1468510","SL",2015-08-26,"Morning",17,1,0,850,0,1
"156",156,6,"1468510","SL",2015-08-26,"Afternoon",18,1,0,981,0,1
"157",157,6,"1468510","SL",2015-08-27,"Morning",19,1,1,698,0,1
"158",158,6,"1468510","SL",2015-08-27,"Afternoon",20,1,0,1460,0,1
"159",159,6,"1468510","SL",2015-08-28,"Morning",21,1,0,544,0,1
"160",160,6,"1468510","SL",2015-08-28,"Afternoon",22,0,0,NA,0,1
"161",161,7,"3374264","SL",2015-08-24,"Morning",1,1,1,430,1,1
"162",162,7,"3374264","SL",2015-08-24,"Afternoon",2,1,1,167,1,1
"163",163,7,"3374264","SL",2015-08-25,"Morning",3,1,0,367,1,1
"164",164,7,"3374264","SL",2015-08-25,"Afternoon",4,1,0,135,1,1
"165",165,7,"3374264","SL",2015-08-26,"Morning",5,1,0,590,1,1
"166",166,7,"3374264","SL",2015-08-26,"Afternoon",6,0,0,NA,1,1
"167",167,7,"3374264","SL",2015-08-27,"Morning",7,1,0,620,1,1
"168",168,7,"3374264","SL",2015-08-27,"Afternoon",8,1,0,943,0,1
"169",169,7,"3374264","SL",2015-08-28,"Morning",9,1,0,558,0,1
"170",170,7,"3374264","SL",2015-08-28,"Afternoon",10,0,0,NA,0,1
"171",171,7,"3374264","SL",2015-08-31,"Morning",11,1,0,1199,0,1
"172",172,7,"3374264","SL",2015-08-31,"Afternoon",12,0,0,NA,0,1
"173",173,7,"3374264","SL",2015-09-01,"Morning",13,1,0,301,0,1
"174",174,7,"3374264","SL",2015-09-01,"Afternoon",14,1,0,543,0,1
"175",175,7,"3374264","SL",2015-09-02,"Morning",15,0,0,NA,0,1
"177",177,7,"3374264","SL",2015-09-03,"Morning",16,0,0,NA,0,1
"179",179,7,"3374264","SL",2015-09-04,"Morning",17,1,0,305,0,1
"180",180,7,"3374264","SL",2015-09-04,"Afternoon",18,0,0,NA,0,1
"181",181,7,"3374264","SL",2015-09-07,"Morning",19,0,0,NA,0,1
"183",183,7,"3374264","SL",2015-09-08,"Morning",20,1,0,159,0,1
"184",184,7,"3374264","SL",2015-09-08,"Afternoon",21,1,0,814,0,1
"185",185,7,"3374264","SL",2015-09-09,"Morning",22,1,0,1587,0,1
"187",187,7,"3374264","SL",2015-09-10,"Morning",23,0,0,NA,0,1
"189",189,7,"3374264","SL",2015-09-11,"Morning",24,0,0,NA,0,1
"191",191,8,"1468509","SL",2015-08-17,"Morning",1,1,1,334,1,1
"192",192,8,"1468509","SL",2015-08-17,"Afternoon",2,1,0,477,1,1
"193",193,8,"1468509","SL",2015-08-18,"Morning",3,1,1,344,1,1
"194",194,8,"1468509","SL",2015-08-18,"Afternoon",4,1,1,154,1,1
"195",195,8,"1468509","SL",2015-08-19,"Morning",5,1,0,273,1,1
"196",196,8,"1468509","SL",2015-08-19,"Afternoon",6,1,0,157,1,1
"197",197,8,"1468509","SL",2015-08-20,"Morning",7,1,0,148,1,1
"198",198,8,"1468509","SL",2015-08-20,"Afternoon",8,0,0,NA,0,1
"199",199,8,"1468509","SL",2015-08-21,"Morning",9,1,0,291,0,1
"200",200,8,"1468509","SL",2015-08-21,"Afternoon",10,1,0,184,0,1
"202",202,8,"1468509","SL",2015-08-24,"Afternoon",11,1,1,239,0,1
"203",203,8,"1468509","SL",2015-08-25,"Morning",12,1,1,44,0,1
"204",204,8,"1468509","SL",2015-08-25,"Afternoon",13,1,1,84,0,1
"205",205,8,"1468509","SL",2015-08-26,"Morning",14,0,0,NA,0,1
"206",206,8,"1468509","SL",2015-08-26,"Afternoon",15,1,0,167,0,1
"207",207,8,"1468509","SL",2015-08-27,"Morning",16,1,0,168,0,1
"208",208,8,"1468509","SL",2015-08-27,"Afternoon",17,0,0,NA,0,1
"209",209,8,"1468509","SL",2015-08-28,"Morning",18,0,0,NA,0,1
"210",210,8,"1468509","SL",2015-08-28,"Afternoon",19,1,0,130,0,1
"211",211,8,"1468509","SL",2015-08-31,"Morning",20,1,0,382,0,1
"213",213,8,"1468509","SL",2015-09-01,"Morning",21,1,0,402,0,1
"214",214,8,"1468509","SL",2015-09-01,"Afternoon",22,1,0,388,0,1
"215",215,8,"1468509","SL",2015-09-02,"Morning",23,0,0,NA,0,1
"216",216,8,"1468509","SL",2015-09-02,"Afternoon",24,0,0,NA,0,1
"217",217,8,"1468509","SL",2015-09-03,"Morning",25,1,0,354,0,1
"219",219,8,"1468509","SL",2015-09-04,"Morning",26,1,0,147,0,1
"220",220,8,"1468509","SL",2015-09-04,"Afternoon",27,0,0,NA,0,1
"221",221,9,"1468460","SL",2015-08-10,"Morning",1,1,1,1722,1,1
"222",222,9,"1468460","SL",2015-08-10,"Afternoon",2,1,1,970,1,1
"223",223,9,"1468460","SL",2015-08-11,"Morning",3,1,1,256,1,1
"224",224,9,"1468460","SL",2015-08-11,"Afternoon",4,1,1,1180,1,1
"225",225,9,"1468460","SL",2015-08-14,"Morning",5,1,0,263,1,1
"226",226,9,"1468460","SL",2015-08-14,"Afternoon",6,1,0,726,1,1
"227",227,9,"1468460","SL",2015-08-17,"Morning",7,1,1,248,1,1
"228",228,9,"1468460","SL",2015-08-17,"Afternoon",8,1,0,2156,0,1
"229",229,9,"1468460","SL",2015-08-18,"Morning",9,1,0,333,0,1
"230",230,9,"1468460","SL",2015-08-18,"Afternoon",10,1,0,485,0,1
"231",231,9,"1468460","SL",2015-08-19,"Morning",11,1,0,1113,0,1
"232",232,9,"1468460","SL",2015-08-19,"Afternoon",12,1,0,432,0,1
"233",233,9,"1468460","SL",2015-08-20,"Morning",13,1,1,379,0,1
"234",234,9,"1468460","SL",2015-08-20,"Afternoon",14,1,0,1024,0,1
"235",235,9,"1468460","SL",2015-08-21,"Morning",15,1,1,423,0,1
"236",236,9,"1468460","SL",2015-08-21,"Afternoon",16,1,0,280,0,1
"237",237,9,"1468460","SL",2015-08-24,"Morning",17,1,0,529,0,1
"238",238,9,"1468460","SL",2015-08-24,"Afternoon",18,1,1,801,0,1
"239",239,9,"1468460","SL",2015-08-25,"Morning",19,1,1,224,0,1
"240",240,9,"1468460","SL",2015-08-25,"Afternoon",20,1,0,967,0,1
"241",241,9,"1468460","SL",2015-08-26,"Morning",21,0,0,NA,0,1
"242",242,9,"1468460","SL",2015-08-26,"Afternoon",22,0,0,NA,0,1
"243",243,9,"1468460","SL",2015-08-27,"Morning",23,0,0,NA,0,1
"244",244,9,"1468460","SL",2015-08-27,"Afternoon",24,1,0,787,0,1
"245",245,9,"1468460","SL",2015-08-28,"Morning",25,1,0,547,0,1
"246",246,9,"1468460","SL",2015-08-28,"Afternoon",26,1,1,602,0,1
"247",247,10,"1468515","SL",2015-08-10,"Morning",1,1,0,19,1,1
"248",248,10,"1468515","SL",2015-08-10,"Afternoon",2,0,0,NA,1,1
"249",249,10,"1468515","SL",2015-08-11,"Morning",3,1,0,270,1,1
"250",250,10,"1468515","SL",2015-08-11,"Afternoon",4,1,0,72,1,1
"251",251,10,"1468515","SL",2015-08-14,"Morning",5,1,0,81,1,1
"252",252,10,"1468515","SL",2015-08-14,"Afternoon",6,1,0,21,1,1
"253",253,10,"1468515","SL",2015-08-17,"Morning",7,1,0,161,1,1
"254",254,10,"1468515","SL",2015-08-17,"Afternoon",8,1,0,565,0,1
"255",255,10,"1468515","SL",2015-08-18,"Morning",9,1,0,47,0,1
"256",256,10,"1468515","SL",2015-08-18,"Afternoon",10,1,0,156,0,1
"257",257,10,"1468515","SL",2015-08-19,"Morning",11,1,0,168,0,1
"258",258,10,"1468515","SL",2015-08-19,"Afternoon",12,1,0,160,0,1
"259",259,10,"1468515","SL",2015-08-20,"Morning",13,1,0,NA,0,1
"260",260,10,"1468515","SL",2015-08-20,"Afternoon",14,1,0,272,0,1
"261",261,10,"1468515","SL",2015-08-21,"Morning",15,0,0,NA,0,1
"262",262,10,"1468515","SL",2015-08-21,"Afternoon",16,1,0,97,0,1
"263",263,10,"1468515","SL",2015-08-24,"Morning",17,1,1,165,0,1
"264",264,10,"1468515","SL",2015-08-24,"Afternoon",18,1,1,103,0,1
"265",265,10,"1468515","SL",2015-08-25,"Morning",19,1,1,107,0,1
"266",266,10,"1468515","SL",2015-08-25,"Afternoon",20,1,0,142,0,1
"267",267,10,"1468515","SL",2015-08-26,"Morning",21,0,0,NA,0,1
"268",268,10,"1468515","SL",2015-08-26,"Afternoon",22,0,0,NA,0,1
"269",269,10,"1468515","SL",2015-08-27,"Morning",23,1,0,66,0,1
"270",270,10,"1468515","SL",2015-08-27,"Afternoon",24,1,0,86,0,1
"271",271,10,"1468515","SL",2015-08-28,"Morning",25,1,0,193,0,1
"272",272,10,"1468515","SL",2015-08-28,"Afternoon",26,1,0,106,0,1
"273",273,11,"1469223","SL",2015-08-10,"Morning",1,1,0,502,1,1
"274",274,11,"1469223","SL",2015-08-10,"Afternoon",2,1,0,359,1,1
"275",275,11,"1469223","SL",2015-08-11,"Morning",3,1,1,137,1,1
"276",276,11,"1469223","SL",2015-08-11,"Afternoon",4,1,0,299,1,1
"277",277,11,"1469223","SL",2015-08-14,"Morning",5,1,0,163,1,1
"278",278,11,"1469223","SL",2015-08-14,"Afternoon",6,1,0,139,1,1
"279",279,11,"1469223","SL",2015-08-17,"Morning",7,1,0,244,1,1
"280",280,11,"1469223","SL",2015-08-17,"Afternoon",8,1,1,250,0,1
"281",281,11,"1469223","SL",2015-08-18,"Morning",9,1,0,397,0,1
"282",282,11,"1469223","SL",2015-08-18,"Afternoon",10,1,0,417,0,1
"283",283,11,"1469223","SL",2015-08-19,"Morning",11,1,0,212,0,1
"284",284,11,"1469223","SL",2015-08-19,"Afternoon",12,1,1,161,0,1
"285",285,11,"1469223","SL",2015-08-20,"Morning",13,1,0,275,0,1
"286",286,11,"1469223","SL",2015-08-20,"Afternoon",14,1,0,109,0,1
"287",287,11,"1469223","SL",2015-08-21,"Morning",15,1,1,620,0,1
"288",288,11,"1469223","SL",2015-08-21,"Afternoon",16,1,0,142,0,1
"289",289,11,"1469223","SL",2015-08-24,"Morning",17,1,1,333,0,1
"290",290,11,"1469223","SL",2015-08-24,"Afternoon",18,1,1,100,0,1
"291",291,11,"1469223","SL",2015-08-25,"Morning",19,1,1,484,0,1
"292",292,11,"1469223","SL",2015-08-25,"Afternoon",20,0,0,NA,0,1
"293",293,11,"1469223","SL",2015-08-26,"Morning",21,0,0,NA,0,1
"294",294,11,"1469223","SL",2015-08-26,"Afternoon",22,0,0,NA,0,1
"295",295,11,"1469223","SL",2015-08-27,"Morning",23,0,0,NA,0,1
"296",296,11,"1469223","SL",2015-08-27,"Afternoon",24,1,0,338,0,1
"297",297,11,"1469223","SL",2015-08-28,"Morning",25,1,0,296,0,1
"298",298,11,"1469223","SL",2015-08-28,"Afternoon",26,0,0,NA,0,1
"299",299,12,"1468535","C",2015-08-10,"Morning",1,1,0,261,1,1
"300",300,12,"1468535","C",2015-08-10,"Afternoon",2,1,0,250,1,1
"301",301,12,"1468535","C",2015-08-11,"Morning",3,1,1,161,1,1
"302",302,12,"1468535","C",2015-08-11,"Afternoon",4,1,0,557,1,1
"303",303,12,"1468535","C",2015-08-14,"Morning",5,1,0,206,1,1
"304",304,12,"1468535","C",2015-08-14,"Afternoon",6,0,0,NA,1,1
"305",305,12,"1468535","C",2015-08-17,"Morning",7,0,0,NA,1,1
"306",306,12,"1468535","C",2015-08-17,"Afternoon",8,1,0,193,1,1
"307",307,12,"1468535","C",2015-08-18,"Morning",9,1,0,165,1,1
"308",308,12,"1468535","C",2015-08-18,"Afternoon",10,1,0,54,1,1
"309",309,12,"1468535","C",2015-08-19,"Morning",11,1,0,29,1,1
"310",310,12,"1468535","C",2015-08-19,"Afternoon",12,1,1,333,1,1
"311",311,12,"1468535","C",2015-08-20,"Morning",13,1,0,213,1,1
"312",312,12,"1468535","C",2015-08-20,"Afternoon",14,1,0,134,0,1
"313",313,12,"1468535","C",2015-08-21,"Morning",15,0,0,NA,0,1
"314",314,12,"1468535","C",2015-08-21,"Afternoon",16,1,0,153,0,1
"315",315,12,"1468535","C",2015-08-24,"Morning",17,1,0,125,0,1
"316",316,12,"1468535","C",2015-08-24,"Afternoon",18,1,1,207,0,1
"317",317,12,"1468535","C",2015-08-25,"Morning",19,1,1,54,0,1
"318",318,12,"1468535","C",2015-08-25,"Afternoon",20,1,0,227,0,1
"319",319,12,"1468535","C",2015-08-26,"Morning",21,1,0,73,0,1
"320",320,12,"1468535","C",2015-08-26,"Afternoon",22,0,0,NA,0,1
"321",321,12,"1468535","C",2015-08-27,"Morning",23,1,0,102,0,1
"322",322,12,"1468535","C",2015-08-27,"Afternoon",24,1,0,198,0,1
"323",323,12,"1468535","C",2015-08-28,"Morning",25,1,0,76,0,1
"324",324,12,"1468535","C",2015-08-28,"Afternoon",26,0,0,NA,0,1
"325",325,14,"1469218","C",2015-08-10,"Morning",1,1,0,58,1,1
"326",326,14,"1469218","C",2015-08-10,"Afternoon",2,1,0,141,1,1
"327",327,14,"1469218","C",2015-08-11,"Morning",3,0,0,NA,1,1
"328",328,14,"1469218","C",2015-08-11,"Afternoon",4,1,0,319,1,1
"329",329,14,"1469218","C",2015-08-14,"Morning",5,1,0,161,1,1
"330",330,14,"1469218","C",2015-08-14,"Afternoon",6,1,0,195,1,1
"331",331,14,"1469218","C",2015-08-17,"Morning",7,1,0,280,1,1
"332",332,14,"1469218","C",2015-08-17,"Afternoon",8,1,0,185,0,1
"333",333,14,"1469218","C",2015-08-18,"Morning",9,1,0,236,0,1
"334",334,14,"1469218","C",2015-08-18,"Afternoon",10,1,0,162,0,1
"335",335,14,"1469218","C",2015-08-19,"Morning",11,1,0,147,0,1
"336",336,14,"1469218","C",2015-08-19,"Afternoon",12,1,0,281,0,1
"337",337,14,"1469218","C",2015-08-20,"Morning",13,1,0,246,0,1
"338",338,14,"1469218","C",2015-08-20,"Afternoon",14,1,1,441,0,1
"339",339,14,"1469218","C",2015-08-21,"Morning",15,1,0,163,0,1
"340",340,14,"1469218","C",2015-08-21,"Afternoon",16,1,0,343,0,1
"341",341,14,"1469218","C",2015-08-24,"Morning",17,1,0,183,0,1
"342",342,14,"1469218","C",2015-08-24,"Afternoon",18,1,1,88,0,1
"343",343,14,"1469218","C",2015-08-25,"Morning",19,1,1,106,0,1
"344",344,14,"1469218","C",2015-08-25,"Afternoon",20,1,0,162,0,1
"345",345,14,"1469218","C",2015-08-26,"Morning",21,1,0,148,0,1
"346",346,14,"1469218","C",2015-08-26,"Afternoon",22,1,0,310,0,1
"347",347,14,"1469218","C",2015-08-27,"Morning",23,1,0,233,0,1
"348",348,14,"1469218","C",2015-08-27,"Afternoon",24,1,0,97,0,1
"349",349,14,"1469218","C",2015-08-28,"Morning",25,1,0,184,0,1
"350",350,14,"1469218","C",2015-08-28,"Afternoon",26,1,0,38,0,1
"351",351,15,"1468476","C",2015-08-10,"Morning",1,0,0,161,1,1
"352",352,15,"1468476","C",2015-08-10,"Afternoon",2,1,0,150,1,1
"353",353,15,"1468476","C",2015-08-11,"Morning",3,1,0,359,1,1
"354",354,15,"1468476","C",2015-08-11,"Afternoon",4,0,0,NA,1,1
"355",355,15,"1468476","C",2015-08-14,"Morning",5,0,0,NA,1,1
"356",356,15,"1468476","C",2015-08-14,"Afternoon",6,0,0,NA,1,1
"357",357,15,"1468476","C",2015-08-17,"Morning",7,1,0,332,1,1
"358",358,15,"1468476","C",2015-08-17,"Afternoon",8,1,0,473,1,1
"359",359,15,"1468476","C",2015-08-18,"Morning",9,1,0,213,1,1
"360",360,15,"1468476","C",2015-08-18,"Afternoon",10,1,1,88,1,1
"361",361,15,"1468476","C",2015-08-19,"Morning",11,1,0,140,1,1
"362",362,15,"1468476","C",2015-08-19,"Afternoon",12,1,0,165,1,1
"363",363,15,"1468476","C",2015-08-20,"Morning",13,1,0,214,0,1
"364",364,15,"1468476","C",2015-08-20,"Afternoon",14,1,0,155,0,1
"365",365,15,"1468476","C",2015-08-21,"Morning",15,1,0,68,0,1
"366",366,15,"1468476","C",2015-08-21,"Afternoon",16,1,0,66,0,1
"367",367,15,"1468476","C",2015-08-24,"Morning",17,1,1,312,0,1
"368",368,15,"1468476","C",2015-08-24,"Afternoon",18,1,0,145,0,1
"369",369,15,"1468476","C",2015-08-25,"Morning",19,1,1,89,0,1
"370",370,15,"1468476","C",2015-08-25,"Afternoon",20,1,0,393,0,1
"371",371,15,"1468476","C",2015-08-26,"Morning",21,1,0,139,0,1
"372",372,15,"1468476","C",2015-08-26,"Afternoon",22,1,0,323,0,1
"373",373,15,"1468476","C",2015-08-27,"Morning",23,1,0,172,0,1
"374",374,15,"1468476","C",2015-08-27,"Afternoon",24,1,0,70,0,1
"375",375,15,"1468476","C",2015-08-28,"Morning",25,1,0,182,0,1
"376",376,15,"1468476","C",2015-08-28,"Afternoon",26,1,0,149,0,1
"377",377,16,"1468532","C",2015-08-10,"Morning",1,1,0,87,1,1
"378",378,16,"1468532","C",2015-08-10,"Afternoon",2,1,0,100,1,1
"379",379,16,"1468532","C",2015-08-11,"Morning",3,0,0,NA,1,1
"380",380,16,"1468532","C",2015-08-11,"Afternoon",4,1,0,46,1,1
"381",381,16,"1468532","C",2015-08-14,"Morning",5,1,0,72,1,1
"382",382,16,"1468532","C",2015-08-14,"Afternoon",6,1,1,177,1,1
"383",383,16,"1468532","C",2015-08-17,"Morning",7,1,0,112,1,1
"384",384,16,"1468532","C",2015-08-17,"Afternoon",8,1,0,269,0,1
"385",385,16,"1468532","C",2015-08-18,"Morning",9,1,1,85,0,1
"386",386,16,"1468532","C",2015-08-18,"Afternoon",10,1,0,288,0,1
"387",387,16,"1468532","C",2015-08-19,"Morning",11,1,1,87,0,1
"388",388,16,"1468532","C",2015-08-19,"Afternoon",12,0,0,NA,0,1
"389",389,16,"1468532","C",2015-08-20,"Morning",13,1,0,18,0,1
"390",390,16,"1468532","C",2015-08-20,"Afternoon",14,1,1,73,0,1
"391",391,16,"1468532","C",2015-08-21,"Morning",15,1,0,30,0,1
"392",392,16,"1468532","C",2015-08-21,"Afternoon",16,1,0,137,0,1
"393",393,16,"1468532","C",2015-08-24,"Morning",17,1,1,36,0,1
"394",394,16,"1468532","C",2015-08-24,"Afternoon",18,1,1,1363,0,1
"395",395,16,"1468532","C",2015-08-25,"Morning",19,1,1,174,0,1
"396",396,16,"1468532","C",2015-08-25,"Afternoon",20,1,0,1407,0,1
"397",397,16,"1468532","C",2015-08-26,"Morning",21,1,0,155,0,1
"398",398,16,"1468532","C",2015-08-26,"Afternoon",22,0,0,NA,0,1
"399",399,16,"1468532","C",2015-08-27,"Morning",23,1,1,131,0,1
"400",400,16,"1468532","C",2015-08-27,"Afternoon",24,1,0,177,0,1
"401",401,16,"1468532","C",2015-08-28,"Morning",25,1,0,142,0,1
"402",402,16,"1468532","C",2015-08-28,"Afternoon",26,1,0,52,0,1
"403",403,19,"3368899","C",2015-08-10,"Morning",1,1,0,1425,1,1
"404",404,19,"3368899","C",2015-08-10,"Afternoon",2,1,0,1147,1,1
"405",405,19,"3368899","C",2015-08-11,"Morning",3,1,1,690,1,1
"406",406,19,"3368899","C",2015-08-11,"Afternoon",4,0,0,NA,1,1
"407",407,19,"3368899","C",2015-08-14,"Morning",5,1,0,414,1,1
"408",408,19,"3368899","C",2015-08-14,"Afternoon",6,1,0,778,1,1
"409",409,19,"3368899","C",2015-08-17,"Morning",7,1,1,523,1,1
"410",410,19,"3368899","C",2015-08-17,"Afternoon",8,1,0,1399,0,1
"411",411,19,"3368899","C",2015-08-18,"Morning",9,1,0,446,0,1
"412",412,19,"3368899","C",2015-08-18,"Afternoon",10,1,0,783,0,1
"413",413,19,"3368899","C",2015-08-19,"Morning",11,0,0,NA,0,1
"414",414,19,"3368899","C",2015-08-19,"Afternoon",12,1,0,4071,0,1
"415",415,19,"3368899","C",2015-08-20,"Morning",13,0,0,NA,0,1
"416",416,19,"3368899","C",2015-08-20,"Afternoon",14,1,0,856,0,1
"417",417,19,"3368899","C",2015-08-21,"Morning",15,1,0,375,0,1
"418",418,19,"3368899","C",2015-08-21,"Afternoon",16,1,1,916,0,1
"419",419,19,"3368899","C",2015-08-24,"Morning",17,1,1,165,0,1
"420",420,19,"3368899","C",2015-08-24,"Afternoon",18,1,1,3410,0,1
"421",421,19,"3368899","C",2015-08-25,"Morning",19,1,1,776,0,1
"422",422,19,"3368899","C",2015-08-25,"Afternoon",20,1,1,548,0,1
"423",423,19,"3368899","C",2015-08-26,"Morning",21,0,0,NA,0,1
"424",424,19,"3368899","C",2015-08-26,"Afternoon",22,1,0,986,0,1
"425",425,19,"3368899","C",2015-08-27,"Morning",23,0,0,NA,0,1
"426",426,19,"3368899","C",2015-08-27,"Afternoon",24,1,1,990,0,1
"427",427,19,"3368899","C",2015-08-28,"Morning",25,0,0,NA,0,1
"428",428,19,"3368899","C",2015-08-28,"Afternoon",26,1,0,1179,0,1
"429",429,1,"3372126","SL",2015-10-19,"Morning",1,1,0,400,1,1
"430",430,1,"3372126","SL",2015-10-19,"Afternoon",2,1,0,1087,1,1
"431",431,1,"3372126","SL",2015-10-20,"Morning",3,1,0,398,1,1
"432",432,1,"3372126","SL",2015-10-20,"Afternoon",4,0,0,NA,1,1
"433",433,1,"3372126","SL",2015-10-21,"Morning",5,1,0,94,1,1
"434",434,1,"3372126","SL",2015-10-21,"Afternoon",6,1,0,653,1,1
"435",435,1,"3372126","SL",2015-10-22,"Morning",7,0,0,NA,1,1
"436",436,1,"3372126","SL",2015-10-22,"Afternoon",8,1,0,281,1,1
"437",437,1,"3372126","SL",2015-10-23,"Morning",9,1,0,59,1,1
"438",438,1,"3372126","SL",2015-10-23,"Afternoon",10,0,0,NA,1,1
"439",439,1,"3372126","SL",2015-10-26,"Morning",11,1,0,95,1,1
"440",440,1,"3372126","SL",2015-10-26,"Afternoon",12,1,0,352,1,1
"441",441,1,"3372126","SL",2015-10-27,"Morning",13,1,0,385,1,1
"442",442,1,"3372126","SL",2015-10-27,"Afternoon",14,1,0,359,1,1
"443",443,1,"3372126","SL",2015-10-28,"Morning",15,1,0,68,0,1
"444",444,1,"3372126","SL",2015-10-28,"Afternoon",16,1,0,230,0,1
"445",445,1,"3372126","SL",2015-10-29,"Morning",17,1,0,454,0,1
"446",446,1,"3372126","SL",2015-10-29,"Afternoon",18,1,0,1065,0,1
"447",447,1,"3372126","SL",2015-10-30,"Morning",19,0,0,NA,0,1
"448",448,1,"3372126","SL",2015-10-30,"Afternoon",20,0,0,NA,0,1
"449",449,1,"3372126","SL",2015-11-02,"Morning",21,1,0,151,0,1
"450",450,1,"3372126","SL",2015-11-02,"Afternoon",22,1,0,136,0,1
"451",451,1,"3372126","SL",2015-11-03,"Morning",23,0,0,NA,0,1
"452",452,1,"3372126","SL",2015-11-03,"Afternoon",24,1,0,276,0,1
"453",453,1,"3372126","SL",2015-11-04,"Morning",25,0,0,NA,0,1
"454",454,1,"3372126","SL",2015-11-04,"Afternoon",26,0,0,NA,0,1
"455",455,1,"3372126","SL",2015-11-05,"Morning",27,1,0,169,0,1
"456",456,1,"3372126","SL",2015-11-05,"Afternoon",28,0,0,NA,0,1
"457",457,1,"3372126","SL",2015-11-06,"Morning",29,1,0,191,0,1
"458",458,1,"3372126","SL",2015-11-06,"Afternoon",30,0,0,NA,0,1
"459",459,2,"3369769","SL",2015-10-19,"Morning",1,1,0,302,1,1
"460",460,2,"3369769","SL",2015-10-19,"Afternoon",2,1,0,548,1,1
"461",461,2,"3369769","SL",2015-10-20,"Morning",3,1,0,824,1,1
"462",462,2,"3369769","SL",2015-10-20,"Afternoon",4,1,0,353,1,1
"463",463,2,"3369769","SL",2015-10-21,"Morning",5,1,0,599,1,1
"464",464,2,"3369769","SL",2015-10-21,"Afternoon",6,1,0,221,1,1
"465",465,2,"3369769","SL",2015-10-22,"Morning",7,1,0,144,1,1
"466",466,2,"3369769","SL",2015-10-22,"Afternoon",8,1,0,232,0,1
"467",467,2,"3369769","SL",2015-10-23,"Morning",9,1,0,296,0,1
"468",468,2,"3369769","SL",2015-10-23,"Afternoon",10,1,0,657,0,1
"469",469,2,"3369769","SL",2015-10-26,"Morning",11,1,0,56,0,1
"470",470,2,"3369769","SL",2015-10-26,"Afternoon",12,1,0,148,0,1
"471",471,2,"3369769","SL",2015-10-27,"Morning",13,1,0,71,0,1
"472",472,2,"3369769","SL",2015-10-27,"Afternoon",14,1,0,70,0,1
"473",473,2,"3369769","SL",2015-10-28,"Morning",15,1,0,34,0,1
"474",474,2,"3369769","SL",2015-10-28,"Afternoon",16,1,0,162,0,1
"475",475,2,"3369769","SL",2015-10-29,"Morning",17,1,0,66,0,1
"476",476,2,"3369769","SL",2015-10-29,"Afternoon",18,1,0,149,0,1
"477",477,2,"3369769","SL",2015-10-30,"Morning",19,1,0,27,0,1
"478",478,2,"3369769","SL",2015-10-30,"Afternoon",20,1,0,156,0,1
"479",479,2,"3369769","SL",2015-11-02,"Morning",21,1,0,56,0,1
"480",480,2,"3369769","SL",2015-11-02,"Afternoon",22,1,0,43,0,1
"481",481,2,"3369769","SL",2015-11-03,"Morning",23,1,0,29,0,1
"482",482,2,"3369769","SL",2015-11-03,"Afternoon",24,1,0,59,0,1
"483",483,2,"3369769","SL",2015-11-04,"Morning",25,0,0,NA,0,1
"484",484,2,"3369769","SL",2015-11-04,"Afternoon",26,1,0,71,0,1
"485",485,2,"3369769","SL",2015-11-05,"Morning",27,1,0,27,0,1
"486",486,2,"3369769","SL",2015-11-05,"Afternoon",28,1,0,114,0,1
"487",487,2,"3369769","SL",2015-11-06,"Morning",29,1,0,766,0,1
"488",488,2,"3369769","SL",2015-11-06,"Afternoon",30,1,0,90,0,1
"489",489,3,"1469222","SL",2015-10-19,"Morning",1,1,0,620,1,1
"490",490,3,"1469222","SL",2015-10-19,"Afternoon",2,1,0,319,1,1
"491",491,3,"1469222","SL",2015-10-20,"Morning",3,1,0,65,1,1
"492",492,3,"1469222","SL",2015-10-20,"Afternoon",4,1,0,698,1,1
"493",493,3,"1469222","SL",2015-10-21,"Morning",5,1,0,510,1,1
"494",494,3,"1469222","SL",2015-10-21,"Afternoon",6,1,0,629,1,1
"495",495,3,"1469222","SL",2015-10-22,"Morning",7,1,0,45,1,1
"496",496,3,"1469222","SL",2015-10-22,"Afternoon",8,1,0,352,0,1
"497",497,3,"1469222","SL",2015-10-23,"Morning",9,0,0,NA,0,1
"498",498,3,"1469222","SL",2015-10-23,"Afternoon",10,1,0,531,0,1
"499",499,3,"1469222","SL",2015-10-26,"Morning",11,1,0,2527,0,1
"500",500,3,"1469222","SL",2015-10-26,"Afternoon",12,0,0,NA,0,1
"501",501,3,"1469222","SL",2015-10-27,"Morning",13,1,0,53,0,1
"502",502,3,"1469222","SL",2015-10-27,"Afternoon",14,1,0,896,0,1
"503",503,3,"1469222","SL",2015-10-28,"Morning",15,0,0,NA,0,1
"504",504,3,"1469222","SL",2015-10-28,"Afternoon",16,1,0,3051,0,1
"505",505,3,"1469222","SL",2015-10-29,"Morning",17,0,0,NA,0,1
"506",506,3,"1469222","SL",2015-10-29,"Afternoon",18,0,0,NA,0,1
"507",507,3,"1469222","SL",2015-10-30,"Morning",19,1,0,147,0,1
"508",508,3,"1469222","SL",2015-10-30,"Afternoon",20,1,0,968,0,1
"509",509,3,"1469222","SL",2015-11-02,"Morning",21,0,0,NA,0,1
"510",510,3,"1469222","SL",2015-11-02,"Afternoon",22,0,0,NA,0,1
"511",511,3,"1469222","SL",2015-11-03,"Morning",23,1,0,1513,0,1
"512",512,3,"1469222","SL",2015-11-03,"Afternoon",24,1,0,597,0,1
"513",513,3,"1469222","SL",2015-11-04,"Morning",25,1,0,81,0,1
"514",514,3,"1469222","SL",2015-11-04,"Afternoon",26,1,0,487,0,1
"515",515,3,"1469222","SL",2015-11-05,"Morning",27,0,0,NA,0,1
"516",516,3,"1469222","SL",2015-11-05,"Afternoon",28,0,0,NA,0,1
"517",517,3,"1469222","SL",2015-11-06,"Morning",29,0,0,NA,0,1
"518",518,3,"1469222","SL",2015-11-06,"Afternoon",30,1,0,982,0,1
"519",519,4,"3374160","SL",2015-10-19,"Morning",1,1,0,735,1,1
"520",520,4,"3374160","SL",2015-10-19,"Afternoon",2,1,0,1613,1,1
"521",521,4,"3374160","SL",2015-10-20,"Morning",3,0,0,NA,1,1
"522",522,4,"3374160","SL",2015-10-20,"Afternoon",4,1,0,1105,1,1
"523",523,4,"3374160","SL",2015-10-21,"Morning",5,1,0,1462,1,1
"524",524,4,"3374160","SL",2015-10-21,"Afternoon",6,1,0,928,1,1
"525",525,4,"3374160","SL",2015-10-22,"Morning",7,1,0,779,1,1
"527",527,4,"3374160","SL",2015-10-23,"Morning",8,1,0,389,0,1
"528",528,4,"3374160","SL",2015-10-23,"Afternoon",9,0,0,NA,0,1
"529",529,4,"3374160","SL",2015-10-26,"Morning",10,1,0,555,0,1
"530",530,4,"3374160","SL",2015-10-26,"Afternoon",11,0,0,NA,0,1
"531",531,4,"3374160","SL",2015-10-27,"Morning",12,1,0,841,0,1
"532",532,4,"3374160","SL",2015-10-27,"Afternoon",13,1,0,757,0,1
"533",533,4,"3374160","SL",2015-10-28,"Morning",14,0,0,NA,0,1
"534",534,4,"3374160","SL",2015-10-28,"Afternoon",15,1,0,1258,0,1
"535",535,4,"3374160","SL",2015-10-29,"Morning",16,1,0,1183,0,1
"536",536,4,"3374160","SL",2015-10-29,"Afternoon",17,0,0,NA,0,1
"537",537,4,"3374160","SL",2015-10-30,"Morning",18,1,0,872,0,1
"539",539,4,"3374160","SL",2015-11-02,"Morning",19,0,0,NA,0,1
"540",540,4,"3374160","SL",2015-11-02,"Afternoon",20,1,0,399,0,1
"541",541,4,"3374160","SL",2015-11-03,"Morning",21,1,0,930,0,1
"543",543,4,"3374160","SL",2015-11-04,"Morning",22,0,0,NA,0,1
"544",544,4,"3374160","SL",2015-11-04,"Afternoon",23,0,0,NA,0,1
"545",545,4,"3374160","SL",2015-11-05,"Morning",24,1,0,468,0,1
"546",546,4,"3374160","SL",2015-11-05,"Afternoon",25,1,0,328,0,1
"547",547,4,"3374160","SL",2015-11-06,"Morning",26,1,0,1460,0,1
"548",548,4,"3374160","SL",2015-11-06,"Afternoon",27,0,0,NA,0,1
"549",549,5,"1470760","C",2015-10-19,"Morning",1,1,0,130,1,1
"550",550,5,"1470760","C",2015-10-19,"Afternoon",2,1,0,93,1,1
"551",551,5,"1470760","C",2015-10-20,"Morning",3,0,0,NA,1,1
"552",552,5,"1470760","C",2015-10-20,"Afternoon",4,0,0,NA,1,1
"553",553,5,"1470760","C",2015-10-21,"Morning",5,1,0,144,1,1
"554",554,5,"1470760","C",2015-10-21,"Afternoon",6,0,0,NA,1,1
"555",555,5,"1470760","C",2015-10-22,"Morning",7,1,0,22,1,1
"556",556,5,"1470760","C",2015-10-22,"Afternoon",8,1,0,702,1,1
"557",557,5,"1470760","C",2015-10-23,"Morning",9,1,0,20,1,1
"558",558,5,"1470760","C",2015-10-23,"Afternoon",10,1,0,24,1,1
"559",559,5,"1470760","C",2015-10-26,"Morning",11,1,0,100,1,1
"560",560,5,"1470760","C",2015-10-26,"Afternoon",12,1,0,252,0,1
"561",561,5,"1470760","C",2015-10-27,"Morning",13,1,0,310,0,1
"562",562,5,"1470760","C",2015-10-27,"Afternoon",14,1,0,74,0,1
"563",563,5,"1470760","C",2015-10-28,"Morning",15,1,0,17,0,1
"564",564,5,"1470760","C",2015-10-28,"Afternoon",16,1,0,54,0,1
"565",565,5,"1470760","C",2015-10-29,"Morning",17,1,0,80,0,1
"566",566,5,"1470760","C",2015-10-29,"Afternoon",18,1,0,78,0,1
"567",567,5,"1470760","C",2015-10-30,"Morning",19,1,0,52,0,1
"568",568,5,"1470760","C",2015-10-30,"Afternoon",20,1,0,698,0,1
"569",569,5,"1470760","C",2015-11-02,"Morning",21,1,0,61,0,1
"570",570,5,"1470760","C",2015-11-02,"Afternoon",22,1,0,877,0,1
"571",571,5,"1470760","C",2015-11-03,"Morning",23,1,0,267,0,1
"572",572,5,"1470760","C",2015-11-03,"Afternoon",24,0,0,NA,0,1
"573",573,5,"1470760","C",2015-11-04,"Morning",25,0,0,NA,0,1
"574",574,5,"1470760","C",2015-11-04,"Afternoon",26,1,0,73,0,1
"575",575,5,"1470760","C",2015-11-05,"Morning",27,1,0,119,0,1
"576",576,5,"1470760","C",2015-11-05,"Afternoon",28,1,0,77,0,1
"577",577,5,"1470760","C",2015-11-06,"Morning",29,0,0,NA,0,1
"578",578,5,"1470760","C",2015-11-06,"Afternoon",30,1,0,232,0,1
"579",579,6,"1469178","C",2015-10-19,"Morning",1,0,0,NA,1,1
"580",580,6,"1469178","C",2015-10-19,"Afternoon",2,1,0,297,1,1
"581",581,6,"1469178","C",2015-10-20,"Morning",3,0,0,NA,1,1
"582",582,6,"1469178","C",2015-10-20,"Afternoon",4,0,0,NA,1,1
"583",583,6,"1469178","C",2015-10-21,"Morning",5,1,0,849,1,1
"584",584,6,"1469178","C",2015-10-21,"Afternoon",6,0,0,NA,1,1
"585",585,6,"1469178","C",2015-10-22,"Morning",7,1,0,1347,1,1
"586",586,6,"1469178","C",2015-10-22,"Afternoon",8,0,0,NA,1,1
"587",587,6,"1469178","C",2015-10-23,"Morning",9,0,0,NA,1,1
"588",588,6,"1469178","C",2015-10-23,"Afternoon",10,0,0,NA,1,1
"589",589,6,"1469178","C",2015-10-26,"Morning",11,0,0,NA,1,1
"590",590,6,"1469178","C",2015-10-26,"Afternoon",12,0,0,NA,1,1
"591",591,6,"1469178","C",2015-10-27,"Morning",13,1,0,485,1,1
"592",592,6,"1469178","C",2015-10-27,"Afternoon",14,1,0,479,1,1
"593",593,6,"1469178","C",2015-10-28,"Morning",15,1,0,497,1,1
"594",594,6,"1469178","C",2015-10-28,"Afternoon",16,0,0,NA,1,1
"595",595,6,"1469178","C",2015-10-29,"Morning",17,0,0,NA,1,1
"596",596,6,"1469178","C",2015-10-29,"Afternoon",18,0,0,NA,1,1
"597",597,6,"1469178","C",2015-10-30,"Morning",19,1,0,431,1,1
"598",598,6,"1469178","C",2015-10-30,"Afternoon",20,1,0,500,1,1
"599",599,6,"1469178","C",2015-11-02,"Morning",21,0,0,NA,1,1
"600",600,6,"1469178","C",2015-11-02,"Afternoon",22,1,0,166,1,1
"601",601,6,"1469178","C",2015-11-03,"Morning",23,1,0,743,1,1
"602",602,6,"1469178","C",2015-11-03,"Afternoon",24,1,0,296,1,1
"603",603,6,"1469178","C",2015-11-04,"Morning",25,1,0,113,1,1
"604",604,6,"1469178","C",2015-11-04,"Afternoon",26,1,0,221,0,1
"605",605,6,"1469178","C",2015-11-05,"Morning",27,1,0,148,0,1
"606",606,6,"1469178","C",2015-11-05,"Afternoon",28,1,0,352,0,1
"607",607,6,"1469178","C",2015-11-06,"Morning",29,0,0,NA,0,1
"608",608,6,"1469178","C",2015-11-06,"Afternoon",30,0,0,NA,0,1
"609",609,7,"1468504","C",2015-10-19,"Morning",1,0,0,NA,1,1
"610",610,7,"1468504","C",2015-10-19,"Afternoon",2,1,0,428,1,1
"611",611,7,"1468504","C",2015-10-20,"Morning",3,1,0,74,1,1
"612",612,7,"1468504","C",2015-10-20,"Afternoon",4,0,0,NA,1,1
"613",613,7,"1468504","C",2015-10-21,"Morning",5,1,0,152,1,1
"614",614,7,"1468504","C",2015-10-21,"Afternoon",6,0,0,NA,1,1
"615",615,7,"1468504","C",2015-10-22,"Morning",7,1,0,190,1,1
"616",616,7,"1468504","C",2015-10-22,"Afternoon",8,0,0,NA,1,1
"617",617,7,"1468504","C",2015-10-23,"Morning",9,1,0,61,1,1
"618",618,7,"1468504","C",2015-10-23,"Afternoon",10,0,0,NA,1,1
"619",619,7,"1468504","C",2015-10-26,"Morning",11,1,0,265,1,1
"620",620,7,"1468504","C",2015-10-26,"Afternoon",12,0,0,NA,1,1
"621",621,7,"1468504","C",2015-10-27,"Morning",13,1,0,33,1,1
"622",622,7,"1468504","C",2015-10-27,"Afternoon",14,1,0,382,1,1
"623",623,7,"1468504","C",2015-10-28,"Morning",15,1,0,220,1,1
"624",624,7,"1468504","C",2015-10-28,"Afternoon",16,1,0,346,1,1
"625",625,7,"1468504","C",2015-10-29,"Morning",17,0,0,NA,1,1
"626",626,7,"1468504","C",2015-10-29,"Afternoon",18,1,0,556,1,1
"627",627,7,"1468504","C",2015-10-30,"Morning",19,1,0,211,1,1
"628",628,7,"1468504","C",2015-10-30,"Afternoon",20,1,0,698,0,1
"629",629,7,"1468504","C",2015-11-02,"Morning",21,1,0,292,0,1
"630",630,7,"1468504","C",2015-11-02,"Afternoon",22,1,0,64,0,1
"631",631,7,"1468504","C",2015-11-03,"Morning",23,0,0,NA,0,1
"632",632,7,"1468504","C",2015-11-03,"Afternoon",24,1,0,141,0,1
"633",633,7,"1468504","C",2015-11-04,"Morning",25,1,0,418,0,1
"634",634,7,"1468504","C",2015-11-04,"Afternoon",26,0,0,NA,0,1
"635",635,7,"1468504","C",2015-11-05,"Morning",27,1,0,308,0,1
"636",636,7,"1468504","C",2015-11-05,"Afternoon",28,0,0,NA,0,1
"637",637,7,"1468504","C",2015-11-06,"Morning",29,1,0,247,0,1
"638",638,7,"1468504","C",2015-11-06,"Afternoon",30,1,0,162,0,1
"639",639,8,"3371239","C",2015-10-19,"Morning",1,0,0,NA,1,1
"640",640,8,"3371239","C",2015-10-19,"Afternoon",2,0,0,NA,1,1
"641",641,8,"3371239","C",2015-10-20,"Morning",3,1,0,144,1,1
"642",642,8,"3371239","C",2015-10-20,"Afternoon",4,1,0,539,1,1
"643",643,8,"3371239","C",2015-10-21,"Morning",5,1,0,106,1,1
"644",644,8,"3371239","C",2015-10-21,"Afternoon",6,1,0,342,1,1
"645",645,8,"3371239","C",2015-10-22,"Morning",7,0,0,NA,1,1
"646",646,8,"3371239","C",2015-10-22,"Afternoon",8,1,0,216,1,1
"647",647,8,"3371239","C",2015-10-23,"Morning",9,1,0,357,1,1
"648",648,8,"3371239","C",2015-10-23,"Afternoon",10,1,0,286,0,1
"649",649,8,"3371239","C",2015-10-26,"Morning",11,0,0,NA,0,1
"650",650,8,"3371239","C",2015-10-26,"Afternoon",12,1,0,394,0,1
"651",651,8,"3371239","C",2015-10-27,"Morning",13,1,0,161,0,1
"652",652,8,"3371239","C",2015-10-27,"Afternoon",14,1,0,405,0,1
"653",653,8,"3371239","C",2015-10-28,"Morning",15,1,0,160,0,1
"654",654,8,"3371239","C",2015-10-28,"Afternoon",16,1,0,402,0,1
"655",655,8,"3371239","C",2015-10-29,"Morning",17,1,0,299,0,1
"656",656,8,"3371239","C",2015-10-29,"Afternoon",18,1,0,271,0,1
"657",657,8,"3371239","C",2015-10-30,"Morning",19,1,0,169,0,1
"658",658,8,"3371239","C",2015-10-30,"Afternoon",20,1,0,428,0,1
"659",659,8,"3371239","C",2015-11-02,"Morning",21,1,0,192,0,1
"660",660,8,"3371239","C",2015-11-02,"Afternoon",22,1,0,119,0,1
"661",661,8,"3371239","C",2015-11-03,"Morning",23,1,0,138,0,1
"662",662,8,"3371239","C",2015-11-03,"Afternoon",24,1,0,342,0,1
"663",663,8,"3371239","C",2015-11-04,"Morning",25,1,0,65,0,1
"664",664,8,"3371239","C",2015-11-04,"Afternoon",26,0,0,NA,0,1
"665",665,8,"3371239","C",2015-11-05,"Morning",27,1,0,114,0,1
"666",666,8,"3371239","C",2015-11-05,"Afternoon",28,1,0,317,0,1
"667",667,8,"3371239","C",2015-11-06,"Morning",29,1,0,269,0,1
"668",668,8,"3371239","C",2015-11-06,"Afternoon",30,1,0,447,0,1
"669",669,9,"1468529","C",2015-10-19,"Morning",1,1,0,102,1,1
"670",670,9,"1468529","C",2015-10-19,"Afternoon",2,0,0,NA,1,1
"671",671,9,"1468529","C",2015-10-20,"Morning",3,1,1,171,1,1
"672",672,9,"1468529","C",2015-10-20,"Afternoon",4,0,0,NA,1,1
"673",673,9,"1468529","C",2015-10-21,"Morning",5,1,0,191,1,1
"674",674,9,"1468529","C",2015-10-21,"Afternoon",6,1,0,577,1,1
"675",675,9,"1468529","C",2015-10-22,"Morning",7,1,0,111,1,1
"676",676,9,"1468529","C",2015-10-22,"Afternoon",8,1,0,1274,1,1
"677",677,9,"1468529","C",2015-10-23,"Morning",9,1,1,247,1,1
"678",678,9,"1468529","C",2015-10-23,"Afternoon",10,0,0,NA,0,1
"679",679,9,"1468529","C",2015-10-26,"Morning",11,0,0,NA,0,1
"680",680,9,"1468529","C",2015-10-26,"Afternoon",12,1,0,51,0,1
"681",681,9,"1468529","C",2015-10-27,"Morning",13,0,0,NA,0,1
"682",682,9,"1468529","C",2015-10-27,"Afternoon",14,1,0,133,0,1
"683",683,9,"1468529","C",2015-10-28,"Morning",15,1,0,187,0,1
"684",684,9,"1468529","C",2015-10-28,"Afternoon",16,1,0,161,0,1
"685",685,9,"1468529","C",2015-10-29,"Morning",17,1,0,108,0,1
"686",686,9,"1468529","C",2015-10-29,"Afternoon",18,0,0,NA,0,1
"687",687,9,"1468529","C",2015-10-30,"Morning",19,1,0,165,0,1
"688",688,9,"1468529","C",2015-10-30,"Afternoon",20,1,0,308,0,1
"689",689,9,"1468529","C",2015-11-02,"Morning",21,1,0,67,0,1
"690",690,9,"1468529","C",2015-11-02,"Afternoon",22,1,0,233,0,1
"691",691,9,"1468529","C",2015-11-03,"Morning",23,0,0,NA,0,1
"692",692,9,"1468529","C",2015-11-03,"Afternoon",24,1,0,217,0,1
"693",693,9,"1468529","C",2015-11-04,"Morning",25,1,0,343,0,1
"694",694,9,"1468529","C",2015-11-04,"Afternoon",26,1,0,248,0,1
"695",695,9,"1468529","C",2015-11-05,"Morning",27,1,0,137,0,1
"696",696,9,"1468529","C",2015-11-05,"Afternoon",28,1,0,504,0,1
"697",697,9,"1468529","C",2015-11-06,"Morning",29,1,0,58,0,1
"698",698,9,"1468529","C",2015-11-06,"Afternoon",30,1,0,307,0,1
"699",699,10,"3371916","C",2015-10-19,"Morning",1,0,0,NA,1,1
"700",700,10,"3371916","C",2015-10-19,"Afternoon",2,1,0,121,1,1
"701",701,10,"3371916","C",2015-10-20,"Morning",3,1,0,135,1,1
"702",702,10,"3371916","C",2015-10-20,"Afternoon",4,1,0,217,1,1
"703",703,10,"3371916","C",2015-10-21,"Morning",5,1,0,204,1,1
"704",704,10,"3371916","C",2015-10-21,"Afternoon",6,0,0,NA,1,1
"705",705,10,"3371916","C",2015-10-22,"Morning",7,1,0,84,1,1
"706",706,10,"3371916","C",2015-10-22,"Afternoon",8,1,0,138,1,1
"707",707,10,"3371916","C",2015-10-23,"Morning",9,1,0,144,0,1
"708",708,10,"3371916","C",2015-10-23,"Afternoon",10,0,0,NA,0,1
"709",709,10,"3371916","C",2015-10-26,"Morning",11,1,0,135,0,1
"710",710,10,"3371916","C",2015-10-26,"Afternoon",12,1,0,186,0,1
"711",711,10,"3371916","C",2015-10-27,"Morning",13,0,0,NA,0,1
"712",712,10,"3371916","C",2015-10-27,"Afternoon",14,1,0,141,0,1
"713",713,10,"3371916","C",2015-10-28,"Morning",15,1,0,38,0,1
"714",714,10,"3371916","C",2015-10-28,"Afternoon",16,0,0,NA,0,1
"715",715,10,"3371916","C",2015-10-29,"Morning",17,1,0,23,0,1
"716",716,10,"3371916","C",2015-10-29,"Afternoon",18,1,0,95,0,1
"717",717,10,"3371916","C",2015-10-30,"Morning",19,1,0,83,0,1
"718",718,10,"3371916","C",2015-10-30,"Afternoon",20,0,0,NA,0,1
"719",719,10,"3371916","C",2015-11-02,"Morning",21,1,0,96,0,1
"720",720,10,"3371916","C",2015-11-02,"Afternoon",22,1,0,128,0,1
"721",721,10,"3371916","C",2015-11-03,"Morning",23,1,0,131,0,1
"722",722,10,"3371916","C",2015-11-03,"Afternoon",24,1,0,342,0,1
"723",723,10,"3371916","C",2015-11-04,"Morning",25,1,0,78,0,1
"724",724,10,"3371916","C",2015-11-04,"Afternoon",26,1,0,172,0,1
"725",725,10,"3371916","C",2015-11-05,"Morning",27,1,0,144,0,1
"726",726,10,"3371916","C",2015-11-05,"Afternoon",28,1,0,128,0,1
"727",727,10,"3371916","C",2015-11-06,"Morning",29,1,0,29,0,1
"728",728,10,"3371916","C",2015-11-06,"Afternoon",30,1,0,235,0,1
"729",729,11,"1468538","C",2015-10-19,"Morning",1,0,0,NA,1,1
"730",730,11,"1468538","C",2015-10-19,"Afternoon",2,0,0,161,1,1
"731",731,11,"1468538","C",2015-10-20,"Morning",3,0,0,NA,1,1
"732",732,11,"1468538","C",2015-10-20,"Afternoon",4,1,0,305,1,1
"733",733,11,"1468538","C",2015-10-21,"Morning",5,1,0,225,1,1
"734",734,11,"1468538","C",2015-10-21,"Afternoon",6,1,0,898,1,1
"735",735,11,"1468538","C",2015-10-22,"Morning",7,0,0,NA,1,1
"736",736,11,"1468538","C",2015-10-22,"Afternoon",8,1,0,2410,1,1
"737",737,11,"1468538","C",2015-10-23,"Morning",9,0,0,NA,1,1
"738",738,11,"1468538","C",2015-10-23,"Afternoon",10,1,0,166,1,1
"739",739,11,"1468538","C",2015-10-26,"Morning",11,1,0,223,1,1
"740",740,11,"1468538","C",2015-10-26,"Afternoon",12,1,0,305,1,1
"741",741,11,"1468538","C",2015-10-27,"Morning",13,1,0,153,1,1
"742",742,11,"1468538","C",2015-10-27,"Afternoon",14,1,0,198,1,1
"743",743,11,"1468538","C",2015-10-28,"Morning",15,1,0,620,0,1
"744",744,11,"1468538","C",2015-10-28,"Afternoon",16,1,0,197,0,1
"745",745,11,"1468538","C",2015-10-29,"Morning",17,1,0,363,0,1
"746",746,11,"1468538","C",2015-10-29,"Afternoon",18,0,0,NA,0,1
"747",747,11,"1468538","C",2015-10-30,"Morning",19,1,0,237,0,1
"748",748,11,"1468538","C",2015-10-30,"Afternoon",20,1,0,469,0,1
"749",749,11,"1468538","C",2015-11-02,"Morning",21,0,0,NA,0,1
"750",750,11,"1468538","C",2015-11-02,"Afternoon",22,1,0,449,0,1
"751",751,11,"1468538","C",2015-11-03,"Morning",23,0,0,NA,0,1
"752",752,11,"1468538","C",2015-11-03,"Afternoon",24,1,0,290,0,1
"754",754,11,"1468538","C",2015-11-04,"Afternoon",25,0,0,NA,0,1
"755",755,11,"1468538","C",2015-11-05,"Morning",26,0,0,NA,0,1
"756",756,11,"1468538","C",2015-11-05,"Afternoon",27,1,0,402,0,1
"757",757,11,"1468538","C",2015-11-06,"Morning",28,0,0,NA,0,1
"758",758,11,"1468538","C",2015-11-06,"Afternoon",29,1,0,789,0,1
"759",759,12,"1468516","C",2015-10-19,"Morning",1,1,0,82,1,1
"760",760,12,"1468516","C",2015-10-19,"Afternoon",2,1,0,52,1,1
"761",761,12,"1468516","C",2015-10-20,"Morning",3,1,1,47,1,1
"762",762,12,"1468516","C",2015-10-20,"Afternoon",4,0,0,NA,1,1
"763",763,12,"1468516","C",2015-10-21,"Morning",5,0,0,NA,1,1
"764",764,12,"1468516","C",2015-10-21,"Afternoon",6,1,0,380,1,1
"765",765,12,"1468516","C",2015-10-22,"Morning",7,1,0,141,1,1
"766",766,12,"1468516","C",2015-10-22,"Afternoon",8,1,1,69,1,1
"767",767,12,"1468516","C",2015-10-23,"Morning",9,1,0,136,1,1
"768",768,12,"1468516","C",2015-10-23,"Afternoon",10,1,0,51,1,1
"769",769,12,"1468516","C",2015-10-26,"Morning",11,1,0,261,1,1
"770",770,12,"1468516","C",2015-10-26,"Afternoon",12,1,0,141,0,1
"771",771,12,"1468516","C",2015-10-27,"Morning",13,1,0,198,0,1
"772",772,12,"1468516","C",2015-10-27,"Afternoon",14,0,0,NA,0,1
"773",773,12,"1468516","C",2015-10-28,"Morning",15,1,0,39,0,1
"774",774,12,"1468516","C",2015-10-28,"Afternoon",16,1,0,66,0,1
"775",775,12,"1468516","C",2015-10-29,"Morning",17,1,0,44,0,1
"776",776,12,"1468516","C",2015-10-29,"Afternoon",18,1,0,327,0,1
"777",777,12,"1468516","C",2015-10-30,"Morning",19,1,0,63,0,1
"778",778,12,"1468516","C",2015-10-30,"Afternoon",20,1,0,168,0,1
"779",779,12,"1468516","C",2015-11-02,"Morning",21,1,0,202,0,1
"780",780,12,"1468516","C",2015-11-02,"Afternoon",22,1,0,242,0,1
"781",781,12,"1468516","C",2015-11-03,"Morning",23,1,0,159,0,1
"782",782,12,"1468516","C",2015-11-03,"Afternoon",24,1,0,296,0,1
"783",783,12,"1468516","C",2015-11-04,"Morning",25,1,0,21,0,1
"784",784,12,"1468516","C",2015-11-04,"Afternoon",26,1,0,23,0,1
"785",785,12,"1468516","C",2015-11-05,"Morning",27,1,0,33,0,1
"786",786,12,"1468516","C",2015-11-05,"Afternoon",28,0,0,NA,0,1
"787",787,12,"1468516","C",2015-11-06,"Morning",29,1,0,35,0,1
"788",788,12,"1468516","C",2015-11-06,"Afternoon",30,0,0,NA,0,1
