"","X","TubID","LizardID","Treatment","Date","Time","Trial","Correct","Choose.only.correct.dish","Latency","lt","learnt"
"1",1,1,"1468549","SL",2015-09-07,"Morning",1,0,0,NA,1,0
"2",2,1,"1468549","SL",2015-09-07,"Afternoon",2,0,0,NA,1,0
"3",3,1,"1468549","SL",2015-09-08,"Morning",3,1,0,169,1,0
"4",4,1,"1468549","SL",2015-09-08,"Afternoon",4,1,0,1076,1,0
"5",5,1,"1468549","SL",2015-09-09,"Morning",5,1,1,227,1,0
"6",6,1,"1468549","SL",2015-09-09,"Afternoon",6,1,1,3506,1,0
"7",7,1,"1468549","SL",2015-09-10,"Morning",7,1,0,457,1,0
"8",8,1,"1468549","SL",2015-09-10,"Afternoon",8,1,1,956,1,0
"9",9,1,"1468549","SL",2015-09-11,"Morning",9,0,0,NA,1,0
"10",10,1,"1468549","SL",2015-09-11,"Afternoon",10,0,0,NA,1,0
"11",11,1,"1468549","SL",2015-09-14,"Morning",11,0,0,NA,1,0
"12",12,1,"1468549","SL",2015-09-14,"Afternoon",12,1,0,783,1,0
"13",13,1,"1468549","SL",2015-09-15,"Morning",13,1,0,332,1,0
"14",14,1,"1468549","SL",2015-09-15,"Afternoon",14,1,1,928,1,0
"15",15,1,"1468549","SL",2015-09-16,"Morning",15,1,1,1132,1,0
"16",16,1,"1468549","SL",2015-09-16,"Afternoon",16,0,0,NA,1,0
"17",17,1,"1468549","SL",2015-09-17,"Morning",17,1,0,850,1,0
"18",18,1,"1468549","SL",2015-09-17,"Afternoon",18,0,0,NA,1,0
"19",19,1,"1468549","SL",2015-09-18,"Morning",19,1,0,243,1,0
"20",20,1,"1468549","SL",2015-09-18,"Afternoon",20,1,0,669,1,0
"21",21,2,"1468506","SL",2015-09-07,"Morning",1,1,0,158,1,0
"22",22,2,"1468506","SL",2015-09-07,"Afternoon",2,0,0,NA,1,0
"23",23,2,"1468506","SL",2015-09-08,"Morning",3,0,0,NA,1,0
"24",24,2,"1468506","SL",2015-09-08,"Afternoon",4,0,0,NA,1,0
"25",25,2,"1468506","SL",2015-09-09,"Morning",5,1,0,104,1,0
"26",27,2,"1468506","SL",2015-09-10,"Morning",6,1,1,203,1,0
"27",28,2,"1468506","SL",2015-09-10,"Afternoon",7,1,1,1182,1,0
"28",29,2,"1468506","SL",2015-09-11,"Morning",8,0,0,NA,1,0
"29",30,2,"1468506","SL",2015-09-11,"Afternoon",9,1,0,476,1,0
"30",31,2,"1468506","SL",2015-09-14,"Morning",10,0,0,NA,1,0
"31",32,2,"1468506","SL",2015-09-14,"Afternoon",11,1,0,224,1,0
"32",33,2,"1468506","SL",2015-09-15,"Morning",12,0,0,NA,1,0
"33",34,2,"1468506","SL",2015-09-15,"Afternoon",13,0,0,NA,1,0
"34",35,2,"1468506","SL",2015-09-16,"Morning",14,1,0,64,1,0
"35",36,2,"1468506","SL",2015-09-16,"Afternoon",15,0,0,NA,1,0
"36",37,2,"1468506","SL",2015-09-17,"Morning",16,0,0,NA,1,0
"37",38,2,"1468506","SL",2015-09-17,"Afternoon",17,1,0,443,1,0
"38",39,2,"1468506","SL",2015-09-18,"Morning",18,1,0,13,1,0
"39",40,2,"1468506","SL",2015-09-18,"Afternoon",19,1,0,227,1,0
"40",41,3,"1469229","SL",2015-09-07,"Morning",1,1,0,794,NA,0
"41",43,3,"1469229","SL",2015-09-08,"Morning",3,0,0,NA,NA,0
"42",44,3,"1469229","SL",2015-09-08,"Afternoon",4,0,0,NA,NA,0
"43",45,3,"1469229","SL",2015-09-09,"Morning",5,0,0,NA,NA,0
"44",47,3,"1469229","SL",2015-09-10,"Morning",7,0,0,NA,NA,0
"45",48,3,"1469229","SL",2015-09-10,"Afternoon",8,1,1,864,NA,0
"46",49,3,"1469229","SL",2015-09-11,"Morning",9,0,0,NA,NA,0
"47",50,3,"1469229","SL",2015-09-11,"Afternoon",10,1,0,569,NA,0
"48",51,3,"1469229","SL",2015-09-14,"Morning",11,1,0,250,NA,0
"49",52,3,"1469229","SL",2015-09-14,"Afternoon",12,1,1,849,NA,0
"50",53,3,"1469229","SL",2015-09-15,"Morning",13,1,1,676,NA,0
"51",54,3,"1469229","SL",2015-09-15,"Afternoon",14,1,0,791,NA,0
"52",55,3,"1469229","SL",2015-09-16,"Morning",15,1,0,522,NA,0
"53",57,3,"1469229","SL",2015-09-17,"Morning",17,1,0,231,NA,0
"54",58,3,"1469229","SL",2015-09-17,"Afternoon",18,1,0,438,NA,0
"55",59,3,"1469229","SL",2015-09-18,"Morning",19,1,0,478,NA,0
"56",60,3,"1469229","SL",2015-09-18,"Afternoon",20,1,0,944,NA,0
"57",61,4,"1468502","SL",2015-09-07,"Morning",1,0,0,NA,1,0
"58",63,4,"1468502","SL",2015-09-08,"Morning",2,0,0,NA,1,0
"59",64,4,"1468502","SL",2015-09-08,"Afternoon",3,1,1,2207,1,0
"60",65,4,"1468502","SL",2015-09-09,"Morning",4,1,1,848,1,0
"61",66,4,"1468502","SL",2015-09-09,"Afternoon",5,1,0,1967,1,0
"62",67,4,"1468502","SL",2015-09-10,"Morning",6,1,0,482,1,0
"63",68,4,"1468502","SL",2015-09-10,"Afternoon",7,1,0,9250,1,0
"64",69,4,"1468502","SL",2015-09-11,"Morning",8,1,1,1545,1,0
"65",71,4,"1468502","SL",2015-09-14,"Morning",9,0,0,NA,1,0
"66",72,4,"1468502","SL",2015-09-14,"Afternoon",10,0,0,NA,1,0
"67",73,4,"1468502","SL",2015-09-15,"Morning",11,1,1,1354,1,0
"68",74,4,"1468502","SL",2015-09-15,"Afternoon",12,0,0,NA,1,0
"69",75,4,"1468502","SL",2015-09-16,"Morning",13,0,0,NA,1,0
"70",76,4,"1468502","SL",2015-09-16,"Afternoon",14,1,0,509,1,0
"71",77,4,"1468502","SL",2015-09-17,"Morning",15,0,0,NA,1,0
"72",78,4,"1468502","SL",2015-09-17,"Afternoon",16,1,0,328,1,0
"73",79,4,"1468502","SL",2015-09-18,"Morning",17,1,0,252,1,0
"74",80,4,"1468502","SL",2015-09-18,"Afternoon",18,1,1,1402,1,0
"75",82,6,"1468510","SL",2015-09-07,"Afternoon",2,0,0,NA,NA,0
"76",83,6,"1468510","SL",2015-09-08,"Morning",3,0,0,NA,NA,0
"77",84,6,"1468510","SL",2015-09-08,"Afternoon",4,1,1,1544,NA,0
"78",85,6,"1468510","SL",2015-09-09,"Morning",5,1,1,1657,NA,0
"79",87,6,"1468510","SL",2015-09-10,"Morning",7,1,1,784,NA,0
"80",88,6,"1468510","SL",2015-09-10,"Afternoon",8,1,1,787,NA,0
"81",89,6,"1468510","SL",2015-09-11,"Morning",9,1,1,488,NA,0
"82",91,6,"1468510","SL",2015-09-14,"Morning",11,1,0,1083,NA,0
"83",93,6,"1468510","SL",2015-09-15,"Morning",13,1,0,654,NA,0
"84",94,6,"1468510","SL",2015-09-15,"Afternoon",14,1,1,1966,NA,0
"85",95,6,"1468510","SL",2015-09-16,"Morning",15,1,0,135,NA,0
"86",97,6,"1468510","SL",2015-09-17,"Morning",17,0,0,NA,NA,0
"87",98,6,"1468510","SL",2015-09-17,"Afternoon",18,1,0,421,NA,0
"88",99,6,"1468510","SL",2015-09-18,"Morning",19,1,0,402,NA,0
"89",101,9,"1468460","SL",2015-09-07,"Morning",1,0,0,NA,NA,0
"90",103,9,"1468460","SL",2015-09-08,"Morning",3,0,0,NA,NA,0
"91",104,9,"1468460","SL",2015-09-08,"Afternoon",4,1,1,876,NA,0
"92",105,9,"1468460","SL",2015-09-09,"Morning",5,1,0,454,NA,0
"93",106,9,"1468460","SL",2015-09-09,"Afternoon",6,1,1,1380,NA,0
"94",107,9,"1468460","SL",2015-09-10,"Morning",7,1,1,409,NA,0
"95",108,9,"1468460","SL",2015-09-10,"Afternoon",8,0,0,NA,NA,0
"96",109,9,"1468460","SL",2015-09-11,"Morning",9,0,0,NA,NA,0
"97",111,9,"1468460","SL",2015-09-14,"Morning",11,1,0,646,NA,0
"98",114,9,"1468460","SL",2015-09-15,"Afternoon",14,1,0,534,NA,0
"99",115,9,"1468460","SL",2015-09-16,"Morning",15,1,0,466,NA,0
"100",117,9,"1468460","SL",2015-09-17,"Morning",17,1,0,552,NA,0
"101",118,9,"1468460","SL",2015-09-17,"Afternoon",18,1,0,681,NA,0
"102",119,9,"1468460","SL",2015-09-18,"Morning",19,1,0,1238,NA,0
"103",120,9,"1468460","SL",2015-09-18,"Afternoon",20,1,0,926,NA,0
"104",121,10,"1468515","SL",2015-09-07,"Morning",1,1,0,58,NA,0
"105",123,10,"1468515","SL",2015-09-08,"Morning",3,1,0,55,NA,0
"106",124,10,"1468515","SL",2015-09-08,"Afternoon",4,1,0,125,NA,0
"107",125,10,"1468515","SL",2015-09-09,"Morning",5,1,0,51,NA,0
"108",126,10,"1468515","SL",2015-09-09,"Afternoon",6,1,1,89,NA,0
"109",127,10,"1468515","SL",2015-09-10,"Morning",7,0,0,NA,NA,0
"110",128,10,"1468515","SL",2015-09-10,"Afternoon",8,1,0,181,NA,0
"111",129,10,"1468515","SL",2015-09-11,"Morning",9,1,0,64,NA,0
"112",130,10,"1468515","SL",2015-09-11,"Afternoon",10,0,0,NA,NA,0
"113",131,10,"1468515","SL",2015-09-14,"Morning",11,1,0,82,NA,0
"114",132,10,"1468515","SL",2015-09-14,"Afternoon",12,1,0,105,NA,0
"115",133,10,"1468515","SL",2015-09-15,"Morning",13,1,0,116,NA,0
"116",134,10,"1468515","SL",2015-09-15,"Afternoon",14,1,1,53,NA,0
"117",135,10,"1468515","SL",2015-09-16,"Morning",15,1,0,66,NA,0
"118",137,10,"1468515","SL",2015-09-17,"Morning",17,1,0,194,NA,0
"119",138,10,"1468515","SL",2015-09-17,"Afternoon",18,0,0,NA,NA,0
"120",139,10,"1468515","SL",2015-09-18,"Morning",19,1,0,71,NA,0
"121",140,10,"1468515","SL",2015-09-18,"Afternoon",20,1,0,185,NA,0
"122",141,11,"1469223","SL",2015-09-07,"Morning",1,0,0,NA,1,0
"123",143,11,"1469223","SL",2015-09-08,"Morning",2,0,0,NA,1,0
"124",145,11,"1469223","SL",2015-09-09,"Morning",3,0,0,NA,1,0
"125",146,11,"1469223","SL",2015-09-09,"Afternoon",4,1,0,665,1,0
"126",147,11,"1469223","SL",2015-09-10,"Morning",5,0,0,NA,1,0
"127",148,11,"1469223","SL",2015-09-10,"Afternoon",6,0,0,NA,1,0
"128",149,11,"1469223","SL",2015-09-11,"Morning",7,1,1,828,1,0
"129",150,11,"1469223","SL",2015-09-11,"Afternoon",8,0,0,NA,1,0
"130",151,11,"1469223","SL",2015-09-14,"Morning",9,1,0,869,1,0
"131",153,11,"1469223","SL",2015-09-15,"Morning",10,1,0,342,1,0
"132",154,11,"1469223","SL",2015-09-15,"Afternoon",11,1,1,3146,1,0
"133",155,11,"1469223","SL",2015-09-16,"Morning",12,1,0,953,1,0
"134",156,11,"1469223","SL",2015-09-16,"Afternoon",13,1,0,3178,1,0
"135",157,11,"1469223","SL",2015-09-17,"Morning",14,0,0,NA,1,0
"136",159,11,"1469223","SL",2015-09-18,"Morning",15,1,0,1782,1,0
"137",160,11,"1469223","SL",2015-09-18,"Afternoon",16,0,0,NA,1,0
"138",161,12,"1468535","C",2015-09-07,"Morning",1,0,0,NA,1,0
"139",162,12,"1468535","C",2015-09-07,"Afternoon",2,0,0,NA,1,0
"140",163,12,"1468535","C",2015-09-08,"Morning",3,1,0,61,1,0
"141",164,12,"1468535","C",2015-09-08,"Afternoon",4,1,0,165,1,0
"142",165,12,"1468535","C",2015-09-09,"Morning",5,1,0,53,1,0
"143",166,12,"1468535","C",2015-09-09,"Afternoon",6,1,0,189,1,0
"144",167,12,"1468535","C",2015-09-10,"Morning",7,0,0,NA,1,0
"145",168,12,"1468535","C",2015-09-10,"Afternoon",8,0,0,NA,1,0
"146",169,12,"1468535","C",2015-09-11,"Morning",9,0,0,NA,1,0
"147",170,12,"1468535","C",2015-09-11,"Afternoon",10,1,0,723,1,0
"148",171,12,"1468535","C",2015-09-14,"Morning",11,0,0,NA,1,0
"149",172,12,"1468535","C",2015-09-14,"Afternoon",12,1,0,109,1,0
"150",173,12,"1468535","C",2015-09-15,"Morning",13,1,0,71,1,0
"151",174,12,"1468535","C",2015-09-15,"Afternoon",14,1,0,188,1,0
"152",175,12,"1468535","C",2015-09-16,"Morning",15,0,0,NA,1,0
"153",176,12,"1468535","C",2015-09-16,"Afternoon",16,1,0,110,1,0
"154",177,12,"1468535","C",2015-09-17,"Morning",17,0,0,NA,1,0
"155",178,12,"1468535","C",2015-09-17,"Afternoon",18,0,0,NA,1,0
"156",179,12,"1468535","C",2015-09-18,"Morning",19,0,0,NA,1,0
"157",181,14,"1469218","C",2015-09-07,"Morning",1,1,0,553,NA,0
"158",182,14,"1469218","C",2015-09-07,"Afternoon",2,0,0,NA,NA,0
"159",183,14,"1469218","C",2015-09-08,"Morning",3,1,0,250,NA,0
"160",184,14,"1469218","C",2015-09-08,"Afternoon",4,0,0,NA,NA,0
"161",185,14,"1469218","C",2015-09-09,"Morning",5,0,0,NA,NA,0
"162",186,14,"1469218","C",2015-09-09,"Afternoon",6,1,0,147,NA,0
"163",187,14,"1469218","C",2015-09-10,"Morning",7,1,0,287,NA,0
"164",188,14,"1469218","C",2015-09-10,"Afternoon",8,1,0,185,NA,0
"165",189,14,"1469218","C",2015-09-11,"Morning",9,1,0,191,NA,0
"166",190,14,"1469218","C",2015-09-11,"Afternoon",10,1,1,596,NA,0
"167",191,14,"1469218","C",2015-09-14,"Morning",11,1,0,321,NA,0
"168",192,14,"1469218","C",2015-09-14,"Afternoon",12,1,1,1003,NA,0
"169",193,14,"1469218","C",2015-09-15,"Morning",13,1,0,127,NA,0
"170",194,14,"1469218","C",2015-09-15,"Afternoon",14,1,0,203,NA,0
"171",195,14,"1469218","C",2015-09-16,"Morning",15,1,0,150,NA,0
"172",196,14,"1469218","C",2015-09-16,"Afternoon",16,1,0,293,NA,0
"173",197,14,"1469218","C",2015-09-17,"Morning",17,0,0,NA,NA,0
"174",198,14,"1469218","C",2015-09-17,"Afternoon",18,1,0,138,NA,0
"175",199,14,"1469218","C",2015-09-18,"Morning",19,1,0,799,NA,0
"176",200,14,"1469218","C",2015-09-18,"Afternoon",20,1,0,130,NA,0
"177",201,15,"1468476","C",2015-09-07,"Morning",1,1,0,135,1,0
"178",203,15,"1468476","C",2015-09-08,"Morning",2,1,0,190,1,0
"179",204,15,"1468476","C",2015-09-08,"Afternoon",3,1,0,180,1,0
"180",205,15,"1468476","C",2015-09-09,"Morning",4,0,0,NA,1,0
"181",206,15,"1468476","C",2015-09-09,"Afternoon",5,1,0,370,1,0
"182",207,15,"1468476","C",2015-09-10,"Morning",6,1,0,245,1,0
"183",208,15,"1468476","C",2015-09-10,"Afternoon",7,1,0,156,1,0
"184",209,15,"1468476","C",2015-09-11,"Morning",8,0,0,NA,1,0
"185",211,15,"1468476","C",2015-09-14,"Morning",9,0,0,NA,1,0
"186",212,15,"1468476","C",2015-09-14,"Afternoon",10,1,1,36,1,0
"187",213,15,"1468476","C",2015-09-15,"Morning",11,1,0,523,1,0
"188",214,15,"1468476","C",2015-09-15,"Afternoon",12,0,0,NA,1,0
"189",215,15,"1468476","C",2015-09-16,"Morning",13,1,0,763,1,0
"190",216,15,"1468476","C",2015-09-16,"Afternoon",14,1,0,225,1,0
"191",217,15,"1468476","C",2015-09-17,"Morning",15,1,0,92,1,0
"192",218,15,"1468476","C",2015-09-17,"Afternoon",16,0,0,NA,1,0
"193",219,15,"1468476","C",2015-09-18,"Morning",17,1,0,438,1,0
"194",220,15,"1468476","C",2015-09-18,"Afternoon",18,1,0,186,1,0
"195",221,16,"1468532","C",2015-09-07,"Morning",1,0,0,NA,1,0
"196",222,16,"1468532","C",2015-09-07,"Afternoon",2,0,0,NA,1,0
"197",223,16,"1468532","C",2015-09-08,"Morning",3,1,0,186,1,0
"198",224,16,"1468532","C",2015-09-08,"Afternoon",4,1,1,248,1,0
"199",225,16,"1468532","C",2015-09-09,"Morning",5,1,0,138,1,0
"200",226,16,"1468532","C",2015-09-09,"Afternoon",6,0,0,NA,1,0
"201",227,16,"1468532","C",2015-09-10,"Morning",7,0,0,NA,1,0
"202",228,16,"1468532","C",2015-09-10,"Afternoon",8,1,0,1141,1,0
"203",229,16,"1468532","C",2015-09-11,"Morning",9,1,1,336,1,0
"204",230,16,"1468532","C",2015-09-11,"Afternoon",10,0,0,NA,1,0
"205",231,16,"1468532","C",2015-09-14,"Morning",11,1,0,44,1,0
"206",232,16,"1468532","C",2015-09-14,"Afternoon",12,0,0,NA,1,0
"207",233,16,"1468532","C",2015-09-15,"Morning",13,0,0,NA,1,0
"208",234,16,"1468532","C",2015-09-15,"Afternoon",14,0,0,NA,1,0
"209",235,16,"1468532","C",2015-09-16,"Morning",15,0,0,NA,1,0
"210",236,16,"1468532","C",2015-09-16,"Afternoon",16,1,0,546,1,0
"211",237,16,"1468532","C",2015-09-17,"Morning",17,0,0,NA,1,0
"212",238,16,"1468532","C",2015-09-17,"Afternoon",18,1,0,725,1,0
"213",239,16,"1468532","C",2015-09-18,"Morning",19,1,0,156,1,0
"214",240,16,"1468532","C",2015-09-18,"Afternoon",20,1,0,124,1,0
"215",241,19,"3368899","C",2015-09-07,"Morning",1,1,0,2463,1,0
"216",242,19,"3368899","C",2015-09-07,"Afternoon",2,1,1,1344,1,0
"217",243,19,"3368899","C",2015-09-08,"Morning",3,0,0,NA,1,0
"218",244,19,"3368899","SL",2015-09-08,"Afternoon",4,1,0,1206,1,0
"219",247,19,"3368899","SL",2015-09-10,"Morning",5,0,0,NA,1,0
"220",248,19,"3368899","SL",2015-09-10,"Afternoon",6,0,0,NA,1,0
"221",249,19,"3368899","SL",2015-09-11,"Morning",7,0,0,NA,1,0
"222",251,19,"3368899","SL",2015-09-14,"Morning",8,0,0,NA,1,0
"223",252,19,"3368899","SL",2015-09-14,"Afternoon",9,0,0,NA,1,0
"224",253,19,"3368899","SL",2015-09-15,"Morning",10,0,0,NA,1,0
"225",254,19,"3368899","SL",2015-09-15,"Afternoon",11,0,0,NA,1,0
"226",255,19,"3368899","SL",2015-09-16,"Morning",12,1,0,821,1,0
"227",257,19,"3368899","SL",2015-09-17,"Morning",13,0,0,NA,1,0
"228",259,19,"3368899","SL",2015-09-18,"Morning",14,1,0,682,1,0
"229",260,19,"3368899","SL",2015-09-18,"Afternoon",15,1,1,1079,1,0
"230",261,5,"1469703","SL",2015-10-19,"Morning",1,1,0,280,NA,0
"231",263,5,"1469703","SL",2015-10-20,"Morning",3,0,0,NA,NA,0
"232",264,5,"1469703","SL",2015-10-20,"Afternoon",4,1,0,419,NA,0
"233",265,5,"1469703","SL",2015-10-21,"Morning",5,0,0,NA,NA,0
"234",266,5,"1469703","SL",2015-10-21,"Afternoon",6,1,0,162,NA,0
"235",267,5,"1469703","SL",2015-10-22,"Morning",7,1,0,81,NA,0
"236",268,5,"1469703","SL",2015-10-22,"Afternoon",8,1,0,124,NA,0
"237",269,5,"1469703","SL",2015-10-23,"Morning",9,1,0,79,NA,0
"238",270,5,"1469703","SL",2015-10-23,"Afternoon",10,1,0,311,NA,0
"239",271,5,"1469703","SL",2015-10-26,"Morning",11,1,0,309,NA,0
"240",272,5,"1469703","SL",2015-10-26,"Afternoon",12,1,0,331,NA,0
"241",273,5,"1469703","SL",2015-10-27,"Morning",13,0,0,NA,NA,0
"242",274,5,"1469703","SL",2015-10-27,"Afternoon",14,1,0,185,NA,0
"243",275,5,"1469703","SL",2015-10-28,"Morning",15,1,0,24,NA,0
"244",276,5,"1469703","SL",2015-10-28,"Afternoon",16,0,0,NA,NA,0
"245",277,5,"1469703","SL",2015-10-29,"Morning",17,0,0,NA,NA,0
"246",278,5,"1469703","SL",2015-10-29,"Afternoon",18,1,0,93,NA,0
"247",279,5,"1469703","SL",2015-10-30,"Morning",19,1,0,213,NA,0
"248",280,5,"1469703","SL",2015-10-30,"Afternoon",20,0,0,NA,NA,0
"249",281,7,"3374264","SL",2015-10-19,"Morning",1,1,0,133,NA,0
"250",282,7,"3374264","SL",2015-10-19,"Afternoon",2,1,0,561,NA,0
"251",283,7,"3374264","SL",2015-10-20,"Morning",3,1,0,138,NA,0
"252",284,7,"3374264","SL",2015-10-20,"Afternoon",4,0,0,NA,NA,0
"253",285,7,"3374264","SL",2015-10-21,"Morning",5,1,0,129,NA,0
"254",286,7,"3374264","SL",2015-10-21,"Afternoon",6,0,0,NA,NA,0
"255",287,7,"3374264","SL",2015-10-22,"Morning",7,0,0,NA,NA,0
"256",288,7,"3374264","SL",2015-10-22,"Afternoon",8,1,0,236,NA,0
"257",289,7,"3374264","SL",2015-10-23,"Morning",9,1,0,173,NA,0
"258",290,7,"3374264","SL",2015-10-23,"Afternoon",10,1,0,173,NA,0
"259",291,7,"3374264","SL",2015-10-26,"Morning",11,1,0,223,NA,0
"260",292,7,"3374264","SL",2015-10-26,"Afternoon",12,1,0,459,NA,0
"261",293,7,"3374264","SL",2015-10-27,"Morning",13,1,0,212,NA,0
"262",294,7,"3374264","SL",2015-10-27,"Afternoon",14,1,0,870,NA,0
"263",295,7,"3374264","SL",2015-10-28,"Morning",15,1,0,462,NA,0
"264",296,7,"3374264","SL",2015-10-28,"Afternoon",16,1,0,581,NA,0
"265",297,7,"3374264","SL",2015-10-29,"Morning",17,1,0,253,NA,0
"266",298,7,"3374264","SL",2015-10-29,"Afternoon",18,1,0,294,NA,0
"267",299,7,"3374264","SL",2015-10-30,"Morning",19,0,0,NA,NA,0
"268",300,7,"3374264","SL",2015-10-30,"Afternoon",20,1,0,186,NA,0
"269",301,8,"1468509","SL",2015-10-19,"Morning",1,0,0,NA,1,0
"270",302,8,"1468509","SL",2015-10-19,"Afternoon",2,1,0,489,1,0
"271",303,8,"1468509","SL",2015-10-20,"Morning",3,1,0,286,1,0
"272",304,8,"1468509","SL",2015-10-20,"Afternoon",4,0,0,NA,1,0
"273",305,8,"1468509","SL",2015-10-21,"Morning",5,0,0,NA,1,0
"274",306,8,"1468509","SL",2015-10-21,"Afternoon",6,0,0,NA,1,0
"275",307,8,"1468509","SL",2015-10-22,"Morning",7,0,0,NA,1,0
"276",308,8,"1468509","SL",2015-10-22,"Afternoon",8,1,0,310,1,0
"277",309,8,"1468509","SL",2015-10-23,"Morning",9,1,0,187,1,0
"278",310,8,"1468509","SL",2015-10-23,"Afternoon",10,1,0,673,1,0
"279",311,8,"1468509","SL",2015-10-26,"Morning",11,1,0,273,1,0
"280",312,8,"1468509","SL",2015-10-26,"Afternoon",12,1,0,171,1,0
"281",313,8,"1468509","SL",2015-10-27,"Morning",13,0,0,NA,1,0
"282",314,8,"1468509","SL",2015-10-27,"Afternoon",14,0,0,NA,1,0
"283",315,8,"1468509","SL",2015-10-28,"Morning",15,1,0,70,1,0
"284",316,8,"1468509","SL",2015-10-28,"Afternoon",16,1,0,453,1,0
"285",317,8,"1468509","SL",2015-10-29,"Morning",17,0,0,NA,1,0
"286",318,8,"1468509","SL",2015-10-29,"Afternoon",18,1,0,251,1,0
"287",319,8,"1468509","SL",2015-10-30,"Morning",19,1,0,82,1,0
"288",320,8,"1468509","SL",2015-10-30,"Afternoon",20,0,0,NA,1,0
"289",321,1,"3372126","SL",2015-11-12,"Morning",1,0,0,NA,1,0
"290",322,1,"3372126","SL",2015-11-12,"Afternoon",2,1,0,298,1,0
"291",323,1,"3372126","SL",2015-11-13,"Morning",3,0,0,NA,1,0
"292",324,1,"3372126","SL",2015-11-13,"Afternoon",4,1,0,963,1,0
"293",325,1,"3372126","SL",2015-11-14,"Morning",5,0,0,NA,1,0
"294",326,1,"3372126","SL",2015-11-14,"Afternoon",6,0,0,NA,1,0
"295",327,1,"3372126","SL",2015-11-15,"Morning",7,1,0,236,1,0
"296",328,1,"3372126","SL",2015-11-15,"Afternoon",8,1,0,769,1,0
"297",329,1,"3372126","SL",2015-11-16,"Morning",9,1,0,62,1,0
"298",330,1,"3372126","SL",2015-11-16,"Afternoon",10,1,0,272,1,0
"299",331,1,"3372126","SL",2015-11-17,"Morning",11,0,0,NA,1,0
"300",332,1,"3372126","SL",2015-11-17,"Afternoon",12,1,0,870,1,0
"301",333,1,"3372126","SL",2015-11-18,"Morning",13,0,0,NA,1,0
"302",334,1,"3372126","SL",2015-11-18,"Afternoon",14,1,0,1073,1,0
"303",335,1,"3372126","SL",2015-11-19,"Morning",15,0,0,NA,1,0
"304",336,1,"3372126","SL",2015-11-19,"Afternoon",16,1,0,247,1,0
"305",337,1,"3372126","SL",2015-11-20,"Morning",17,1,0,161,1,0
"306",338,1,"3372126","SL",2015-11-20,"Afternoon",18,1,0,664,1,0
"307",339,1,"3372126","SL",2015-11-21,"Morning",19,1,0,265,1,0
"308",340,1,"3372126","SL",2015-11-21,"Afternoon",20,0,0,NA,1,0
"309",341,2,"3369769","SL",2015-11-12,"Morning",1,0,0,NA,NA,0
"310",342,2,"3369769","SL",2015-11-12,"Afternoon",2,1,0,965,NA,0
"311",343,2,"3369769","SL",2015-11-13,"Morning",3,0,0,NA,NA,0
"312",344,2,"3369769","SL",2015-11-13,"Afternoon",4,0,0,NA,NA,0
"313",345,2,"3369769","SL",2015-11-14,"Morning",5,0,0,NA,NA,0
"314",346,2,"3369769","SL",2015-11-14,"Afternoon",6,1,0,109,NA,0
"315",347,2,"3369769","SL",2015-11-15,"Morning",7,1,0,201,NA,0
"316",348,2,"3369769","SL",2015-11-15,"Afternoon",8,1,0,159,NA,0
"317",349,2,"3369769","SL",2015-11-16,"Morning",9,1,0,111,NA,0
"318",350,2,"3369769","SL",2015-11-16,"Afternoon",10,1,0,56,NA,0
"319",351,2,"3369769","SL",2015-11-17,"Morning",11,0,0,NA,NA,0
"320",352,2,"3369769","SL",2015-11-17,"Afternoon",12,1,0,125,NA,0
"321",353,2,"3369769","SL",2015-11-18,"Morning",13,1,0,44,NA,0
"322",354,2,"3369769","SL",2015-11-18,"Afternoon",14,1,0,66,NA,0
"323",355,2,"3369769","SL",2015-11-19,"Morning",15,0,0,NA,NA,0
"324",356,2,"3369769","SL",2015-11-19,"Afternoon",16,1,0,206,NA,0
"325",357,2,"3369769","SL",2015-11-20,"Morning",17,0,0,NA,NA,0
"326",358,2,"3369769","SL",2015-11-20,"Afternoon",18,1,0,79,NA,0
"327",359,2,"3369769","SL",2015-11-21,"Morning",19,1,0,140,NA,0
"328",360,2,"3369769","SL",2015-11-21,"Afternoon",20,1,0,404,NA,0
"329",361,3,"1469222","SL",2015-11-12,"Morning",1,1,0,899,1,0
"330",362,3,"1469222","SL",2015-11-12,"Afternoon",2,1,0,1942,1,0
"331",363,3,"1469222","SL",2015-11-13,"Morning",3,1,0,255,1,0
"332",365,3,"1469222","SL",2015-11-14,"Morning",4,0,0,NA,1,0
"333",366,3,"1469222","SL",2015-11-14,"Afternoon",5,1,0,1130,1,0
"334",367,3,"1469222","SL",2015-11-15,"Morning",6,1,0,1010,1,0
"335",368,3,"1469222","SL",2015-11-15,"Afternoon",7,0,0,NA,1,0
"336",369,3,"1469222","SL",2015-11-16,"Morning",8,1,0,109,1,0
"337",370,3,"1469222","SL",2015-11-16,"Afternoon",9,0,0,NA,1,0
"338",371,3,"1469222","SL",2015-11-17,"Morning",10,0,0,NA,1,0
"339",372,3,"1469222","SL",2015-11-17,"Afternoon",11,1,0,1089,1,0
"340",373,3,"1469222","SL",2015-11-18,"Morning",12,0,1,NA,1,0
"341",374,3,"1469222","SL",2015-11-18,"Afternoon",13,0,0,NA,1,0
"342",375,3,"1469222","SL",2015-11-19,"Morning",14,0,0,NA,1,0
"343",376,3,"1469222","SL",2015-11-19,"Afternoon",15,1,0,1215,1,0
"344",377,3,"1469222","SL",2015-11-20,"Morning",16,1,0,3416,1,0
"345",378,3,"1469222","SL",2015-11-20,"Afternoon",17,0,0,NA,1,0
"346",379,3,"1469222","SL",2015-11-21,"Morning",18,0,1,NA,1,0
"347",380,3,"1469222","SL",2015-11-21,"Afternoon",19,0,0,NA,1,0
"348",381,4,"3374160","SL",2015-11-12,"Morning",1,1,0,816,1,0
"349",383,4,"3374160","SL",2015-11-13,"Morning",2,1,0,80,1,0
"350",384,4,"3374160","SL",2015-11-13,"Afternoon",3,1,0,2765,1,0
"351",385,4,"3374160","SL",2015-11-14,"Morning",4,1,0,620,1,0
"352",386,4,"3374160","SL",2015-11-14,"Afternoon",5,1,0,1101,1,0
"353",387,4,"3374160","SL",2015-11-15,"Morning",6,0,0,NA,1,0
"354",388,4,"3374160","SL",2015-11-15,"Afternoon",7,0,0,NA,1,0
"355",389,4,"3374160","SL",2015-11-16,"Morning",8,1,0,1112,1,0
"356",390,4,"3374160","SL",2015-11-16,"Afternoon",9,0,0,NA,1,0
"357",391,4,"3374160","SL",2015-11-17,"Morning",10,1,0,689,1,0
"358",392,4,"3374160","SL",2015-11-17,"Afternoon",11,0,0,NA,1,0
"359",393,4,"3374160","SL",2015-11-18,"Morning",12,0,0,NA,1,0
"360",394,4,"3374160","SL",2015-11-18,"Afternoon",13,0,0,NA,1,0
"361",395,4,"3374160","SL",2015-11-19,"Morning",14,0,0,NA,1,0
"362",396,4,"3374160","SL",2015-11-19,"Afternoon",15,1,0,3228,1,0
"363",397,4,"3374160","SL",2015-11-20,"Morning",16,1,0,835,1,0
"364",398,4,"3374160","SL",2015-11-20,"Afternoon",17,0,0,NA,1,0
"365",399,4,"3374160","SL",2015-11-21,"Morning",18,1,0,1296,1,0
"366",400,4,"3374160","SL",2015-11-21,"Afternoon",19,1,0,980,1,0
"367",401,5,"1470760","C",2015-11-12,"Morning",1,0,0,NA,1,0
"368",402,5,"1470760","C",2015-11-12,"Afternoon",2,1,0,123,1,0
"369",403,5,"1470760","C",2015-11-13,"Morning",3,0,0,NA,1,0
"370",404,5,"1470760","C",2015-11-13,"Afternoon",4,1,0,188,1,0
"371",405,5,"1470760","C",2015-11-14,"Morning",5,0,0,NA,1,0
"372",406,5,"1470760","C",2015-11-14,"Afternoon",6,1,0,119,1,0
"373",407,5,"1470760","C",2015-11-15,"Morning",7,1,0,150,1,0
"374",408,5,"1470760","C",2015-11-15,"Afternoon",8,0,0,NA,1,0
"375",409,5,"1470760","C",2015-11-16,"Morning",9,0,0,NA,1,0
"376",410,5,"1470760","C",2015-11-16,"Afternoon",10,1,0,148,1,0
"377",411,5,"1470760","C",2015-11-17,"Morning",11,0,0,NA,1,0
"378",412,5,"1470760","C",2015-11-17,"Afternoon",12,1,0,476,1,0
"379",413,5,"1470760","C",2015-11-18,"Morning",13,0,0,NA,1,0
"380",414,5,"1470760","C",2015-11-18,"Afternoon",14,1,0,313,1,0
"381",415,5,"1470760","C",2015-11-19,"Morning",15,0,0,NA,1,0
"382",417,5,"1470760","C",2015-11-20,"Morning",16,1,0,127,1,0
"383",418,5,"1470760","C",2015-11-20,"Afternoon",17,1,0,1981,1,0
"384",419,5,"1470760","C",2015-11-21,"Morning",18,1,0,449,1,0
"385",420,5,"1470760","C",2015-11-21,"Afternoon",19,0,0,NA,1,0
"386",421,6,"1469178","C",2015-11-12,"Morning",1,0,0,NA,1,0
"387",422,6,"1469178","C",2015-11-12,"Afternoon",2,0,0,NA,1,0
"388",423,6,"1469178","C",2015-11-13,"Morning",3,0,0,NA,1,0
"389",424,6,"1469178","C",2015-11-13,"Afternoon",4,0,0,NA,1,0
"390",426,6,"1469178","C",2015-11-14,"Afternoon",5,0,0,NA,1,0
"391",427,6,"1469178","C",2015-11-15,"Morning",6,0,0,NA,1,0
"392",428,6,"1469178","C",2015-11-15,"Afternoon",7,0,0,NA,1,0
"393",429,6,"1469178","C",2015-11-16,"Morning",8,1,0,1843,1,0
"394",430,6,"1469178","C",2015-11-16,"Afternoon",9,0,0,NA,1,0
"395",431,6,"1469178","C",2015-11-17,"Morning",10,0,0,NA,1,0
"396",432,6,"1469178","C",2015-11-17,"Afternoon",11,0,0,NA,1,0
"397",433,6,"1469178","C",2015-11-18,"Morning",12,0,0,NA,1,0
"398",434,6,"1469178","C",2015-11-18,"Afternoon",13,1,0,236,1,0
"399",435,6,"1469178","C",2015-11-19,"Morning",14,0,0,NA,1,0
"400",436,6,"1469178","C",2015-11-19,"Afternoon",15,0,0,NA,1,0
"401",437,6,"1469178","C",2015-11-20,"Morning",16,0,0,NA,1,0
"402",438,6,"1469178","C",2015-11-20,"Afternoon",17,0,0,NA,1,0
"403",439,6,"1469178","C",2015-11-21,"Morning",18,0,0,NA,1,0
"404",440,6,"1469178","C",2015-11-21,"Afternoon",19,0,0,NA,1,0
"405",441,7,"1468504","C",2015-11-12,"Morning",1,1,0,19,1,0
"406",442,7,"1468504","C",2015-11-12,"Afternoon",2,0,0,NA,1,0
"407",443,7,"1468504","C",2015-11-13,"Morning",3,0,0,NA,1,0
"408",444,7,"1468504","C",2015-11-13,"Afternoon",4,1,0,183,1,0
"409",445,7,"1468504","C",2015-11-14,"Morning",5,1,0,149,1,0
"410",446,7,"1468504","C",2015-11-14,"Afternoon",6,1,0,259,1,0
"411",447,7,"1468504","C",2015-11-15,"Morning",7,0,0,NA,1,0
"412",448,7,"1468504","C",2015-11-15,"Afternoon",8,1,0,453,1,0
"413",449,7,"1468504","C",2015-11-16,"Morning",9,1,0,143,1,0
"414",450,7,"1468504","C",2015-11-16,"Afternoon",10,1,0,268,1,0
"415",451,7,"1468504","C",2015-11-17,"Morning",11,0,0,NA,1,0
"416",452,7,"1468504","C",2015-11-17,"Afternoon",12,0,0,NA,1,0
"417",453,7,"1468504","C",2015-11-18,"Morning",13,1,0,329,1,0
"418",454,7,"1468504","C",2015-11-18,"Afternoon",14,0,0,NA,1,0
"419",455,7,"1468504","C",2015-11-19,"Morning",15,1,0,589,1,0
"420",456,7,"1468504","C",2015-11-19,"Afternoon",16,0,0,NA,1,0
"421",457,7,"1468504","C",2015-11-20,"Morning",17,1,0,426,1,0
"422",458,7,"1468504","C",2015-11-20,"Afternoon",18,1,0,777,1,0
"423",459,7,"1468504","C",2015-11-21,"Morning",19,1,0,431,1,0
"424",460,7,"1468504","C",2015-11-21,"Afternoon",20,1,0,797,1,0
"425",461,8,"3371239","C",2015-11-12,"Morning",1,0,0,NA,1,0
"426",462,8,"3371239","C",2015-11-12,"Afternoon",2,1,0,282,1,0
"427",463,8,"3371239","C",2015-11-13,"Morning",3,0,0,NA,1,0
"428",464,8,"3371239","C",2015-11-13,"Afternoon",4,1,0,568,1,0
"429",465,8,"3371239","C",2015-11-14,"Morning",5,1,0,334,1,0
"430",466,8,"3371239","C",2015-11-14,"Afternoon",6,1,0,254,1,0
"431",467,8,"3371239","C",2015-11-15,"Morning",7,0,0,NA,1,0
"432",468,8,"3371239","C",2015-11-15,"Afternoon",8,1,0,2120,1,0
"433",469,8,"3371239","C",2015-11-16,"Morning",9,0,0,NA,1,0
"434",470,8,"3371239","C",2015-11-16,"Afternoon",10,0,0,NA,1,0
"435",471,8,"3371239","C",2015-11-17,"Morning",11,1,0,289,1,0
"436",472,8,"3371239","C",2015-11-17,"Afternoon",12,1,0,550,1,0
"437",473,8,"3371239","C",2015-11-18,"Morning",13,0,0,NA,1,0
"438",474,8,"3371239","C",2015-11-18,"Afternoon",14,1,0,2153,1,0
"439",475,8,"3371239","C",2015-11-19,"Morning",15,0,0,NA,1,0
"440",477,8,"3371239","C",2015-11-20,"Morning",16,1,0,171,1,0
"441",478,8,"3371239","C",2015-11-20,"Afternoon",17,0,0,NA,1,0
"442",479,8,"3371239","C",2015-11-21,"Morning",18,0,0,NA,1,0
"443",480,8,"3371239","C",2015-11-21,"Afternoon",19,0,0,NA,1,0
"444",481,9,"1468529","C",2015-11-12,"Morning",1,1,0,104,1,0
"445",482,9,"1468529","C",2015-11-12,"Afternoon",2,1,0,149,1,0
"446",483,9,"1468529","C",2015-11-13,"Morning",3,1,0,89,1,0
"447",484,9,"1468529","C",2015-11-13,"Afternoon",4,0,0,NA,1,0
"448",485,9,"1468529","C",2015-11-14,"Morning",5,0,0,NA,1,0
"449",486,9,"1468529","C",2015-11-14,"Afternoon",6,0,0,NA,1,0
"450",487,9,"1468529","C",2015-11-15,"Morning",7,1,0,185,1,0
"451",488,9,"1468529","C",2015-11-15,"Afternoon",8,1,1,135,1,0
"452",489,9,"1468529","C",2015-11-16,"Morning",9,0,0,NA,1,0
"453",490,9,"1468529","C",2015-11-16,"Afternoon",10,0,0,NA,1,0
"454",491,9,"1468529","C",2015-11-17,"Morning",11,1,0,1386,1,0
"455",492,9,"1468529","C",2015-11-17,"Afternoon",12,0,0,NA,1,0
"456",493,9,"1468529","C",2015-11-18,"Morning",13,1,0,455,1,0
"457",494,9,"1468529","C",2015-11-18,"Afternoon",14,0,0,NA,1,0
"458",495,9,"1468529","C",2015-11-19,"Morning",15,1,0,1226,1,0
"459",496,9,"1468529","C",2015-11-19,"Afternoon",16,1,0,777,1,0
"460",497,9,"1468529","C",2015-11-20,"Morning",17,1,0,195,1,0
"461",498,9,"1468529","C",2015-11-20,"Afternoon",18,0,0,NA,1,0
"462",499,9,"1468529","C",2015-11-21,"Morning",19,0,0,NA,1,0
"463",500,9,"1468529","C",2015-11-21,"Afternoon",20,1,0,873,1,0
"464",501,10,"3371916","C",2015-11-12,"Morning",1,0,0,NA,1,0
"465",502,10,"3371916","C",2015-11-12,"Afternoon",2,1,0,133,1,0
"466",503,10,"3371916","C",2015-11-13,"Morning",3,0,0,NA,1,0
"467",504,10,"3371916","C",2015-11-13,"Afternoon",4,1,0,366,1,0
"468",505,10,"3371916","C",2015-11-14,"Morning",5,1,0,130,1,0
"469",506,10,"3371916","C",2015-11-14,"Afternoon",6,1,0,123,1,0
"470",507,10,"3371916","C",2015-11-15,"Morning",7,0,0,NA,1,0
"471",508,10,"3371916","C",2015-11-15,"Afternoon",8,0,0,NA,1,0
"472",509,10,"3371916","C",2015-11-16,"Morning",9,0,0,NA,1,0
"473",510,10,"3371916","C",2015-11-16,"Afternoon",10,1,0,159,1,0
"474",511,10,"3371916","C",2015-11-17,"Morning",11,0,0,NA,1,0
"475",512,10,"3371916","C",2015-11-17,"Afternoon",12,1,0,641,1,0
"476",513,10,"3371916","C",2015-11-18,"Morning",13,1,0,436,1,0
"477",514,10,"3371916","C",2015-11-18,"Afternoon",14,1,0,535,1,0
"478",515,10,"3371916","C",2015-11-19,"Morning",15,0,0,NA,1,0
"479",516,10,"3371916","C",2015-11-19,"Afternoon",16,1,0,349,1,0
"480",517,10,"3371916","C",2015-11-20,"Morning",17,1,0,137,1,0
"481",518,10,"3371916","C",2015-11-20,"Afternoon",18,1,0,84,1,0
"482",519,10,"3371916","C",2015-11-21,"Morning",19,0,0,NA,1,0
"483",520,10,"3371916","C",2015-11-21,"Afternoon",20,1,0,160,1,0
"484",521,11,"1468538","C",2015-11-12,"Morning",1,0,0,NA,1,0
"485",522,11,"1468538","C",2015-11-12,"Afternoon",2,1,0,710,1,0
"486",523,11,"1468538","C",2015-11-13,"Morning",3,1,0,314,1,0
"487",524,11,"1468538","C",2015-11-13,"Afternoon",4,0,0,NA,1,0
"488",525,11,"1468538","C",2015-11-14,"Morning",5,0,0,NA,1,0
"489",526,11,"1468538","C",2015-11-14,"Afternoon",6,1,0,1424,1,0
"490",527,11,"1468538","C",2015-11-15,"Morning",7,0,0,NA,1,0
"491",528,11,"1468538","C",2015-11-15,"Afternoon",8,0,0,NA,1,0
"492",529,11,"1468538","C",2015-11-16,"Morning",9,1,0,3434,1,0
"493",530,11,"1468538","C",2015-11-16,"Afternoon",10,0,0,NA,1,0
"494",531,11,"1468538","C",2015-11-17,"Morning",11,1,0,2724,1,0
"495",532,11,"1468538","C",2015-11-17,"Afternoon",12,1,0,1100,1,0
"496",533,11,"1468538","C",2015-11-18,"Morning",13,0,0,NA,1,0
"497",535,11,"1468538","C",2015-11-19,"Morning",14,0,0,NA,1,0
"498",536,11,"1468538","C",2015-11-19,"Afternoon",15,0,0,NA,1,0
"499",538,11,"1468538","C",2015-11-20,"Afternoon",16,0,0,NA,1,0
"500",539,11,"1468538","C",2015-11-21,"Morning",17,1,0,798,1,0
"501",540,11,"1468538","C",2015-11-21,"Afternoon",18,0,0,NA,1,0
"502",541,12,"1468516","C",2015-11-12,"Morning",1,1,0,18,NA,0
"503",542,12,"1468516","C",2015-11-12,"Afternoon",2,0,0,NA,NA,0
"504",543,12,"1468516","C",2015-11-13,"Morning",3,1,0,88,NA,0
"505",544,12,"1468516","C",2015-11-13,"Afternoon",4,1,0,126,NA,0
"506",545,12,"1468516","C",2015-11-14,"Morning",5,1,0,17,NA,0
"507",546,12,"1468516","C",2015-11-14,"Afternoon",6,1,0,69,NA,0
"508",547,12,"1468516","C",2015-11-15,"Morning",7,1,0,145,NA,0
"509",548,12,"1468516","C",2015-11-15,"Afternoon",8,1,0,86,NA,0
"510",549,12,"1468516","C",2015-11-16,"Morning",9,1,0,177,NA,0
"511",550,12,"1468516","C",2015-11-16,"Afternoon",10,1,0,55,NA,0
"512",551,12,"1468516","C",2015-11-17,"Morning",11,0,0,NA,NA,0
"513",552,12,"1468516","C",2015-11-17,"Afternoon",12,0,0,NA,NA,0
"514",553,12,"1468516","C",2015-11-18,"Morning",13,1,0,372,NA,0
"515",554,12,"1468516","C",2015-11-18,"Afternoon",14,0,0,NA,NA,0
"516",555,12,"1468516","C",2015-11-19,"Morning",15,0,0,NA,NA,0
"517",556,12,"1468516","C",2015-11-19,"Afternoon",16,0,0,NA,NA,0
"518",557,12,"1468516","C",2015-11-20,"Morning",17,0,0,NA,NA,0
"519",558,12,"1468516","C",2015-11-20,"Afternoon",18,1,0,1890,NA,0
"520",559,12,"1468516","C",2015-11-21,"Morning",19,0,0,NA,NA,0
"521",560,12,"1468516","C",2015-11-21,"Afternoon",20,0,0,NA,NA,0
