TubID,LizardID,Treatment,Date,Time,Trial,Correct,Latency1,3372126,SL,10/12/2015,Morning,1,1,5311,3372126,SL,10/12/2015,Afternoon,2,1,4111,3372126,SL,10/13/2015,Morning,3,1,1441,3372126,SL,10/13/2015,Afternoon,4,1,941,3372126,SL,10/14/2015,Morning,5,1,3051,3372126,SL,10/14/2015,Afternoon,6,1,6571,3372126,SL,10/15/2015,Morning,7,1,1021,3372126,SL,10/15/2015,Afternoon,8,NA,NA1,3372126,SL,10/16/2015,Morning,9,1,2081,3372126,SL,10/16/2015,Afternoon,10,1,7292,3369769,SL,10/12/2015,Morning,1,1,4012,3369769,SL,10/12/2015,Afternoon,2,1,5582,3369769,SL,10/13/2015,Morning,3,1,1112,3369769,SL,10/13/2015,Afternoon,4,1,932,3369769,SL,10/14/2015,Morning,5,1,1642,3369769,SL,10/14/2015,Afternoon,6,1,4252,3369769,SL,10/15/2015,Morning,7,1,5112,3369769,SL,10/15/2015,Afternoon,8,1,1982,3369769,SL,10/16/2015,Morning,9,1,1642,3369769,SL,10/16/2015,Afternoon,10,1,1333,1469222,SL,10/12/2015,Morning,1,1,20383,1469222,SL,10/12/2015,Afternoon,2,1,3733,1469222,SL,10/13/2015,Morning,3,1,22073,1469222,SL,10/13/2015,Afternoon,4,NA,NA3,1469222,SL,10/14/2015,Morning,5,NA,NA3,1469222,SL,10/14/2015,Afternoon,6,1,1043,1469222,SL,10/15/2015,Morning,7,1,1513,1469222,SL,10/15/2015,Afternoon,8,1,1743,1469222,SL,10/16/2015,Morning,9,1,2263,1469222,SL,10/16/2015,Afternoon,10,1,6274,3374160,SL,10/12/2015,Morning,1,1,2234,3374160,SL,10/12/2015,Afternoon,2,1,18014,3374160,SL,10/13/2015,Morning,3,1,1864,3374160,SL,10/13/2015,Afternoon,4,1,4074,3374160,SL,10/14/2015,Morning,5,1,5874,3374160,SL,10/14/2015,Afternoon,6,1,12394,3374160,SL,10/15/2015,Morning,7,1,1494,3374160,SL,10/15/2015,Afternoon,8,1,5694,3374160,SL,10/16/2015,Morning,9,1,28814,3374160,SL,10/16/2015,Afternoon,10,1,14435,1470760,C,10/12/2015,Morning,1,1,795,1470760,C,10/12/2015,Afternoon,2,1,1725,1470760,C,10/13/2015,Morning,3,1,8855,1470760,C,10/13/2015,Afternoon,4,1,1785,1470760,C,10/14/2015,Morning,5,1,755,1470760,C,10/14/2015,Afternoon,6,1,1615,1470760,C,10/15/2015,Morning,7,1,1475,1470760,C,10/15/2015,Afternoon,8,1,1215,1470760,C,10/16/2015,Morning,9,1,555,1470760,C,10/16/2015,Afternoon,10,1,796,1469178,C,10/12/2015,Morning,1,1,1416,1469178,C,10/12/2015,Afternoon,2,1,1136,1469178,C,10/13/2015,Morning,3,1,3316,1469178,C,10/13/2015,Afternoon,4,1,1276,1469178,C,10/14/2015,Morning,5,1,1136,1469178,C,10/14/2015,Afternoon,6,1,6986,1469178,C,10/15/2015,Morning,7,1,7656,1469178,C,10/15/2015,Afternoon,8,1,966,1469178,C,10/16/2015,Morning,9,1,186,1469178,C,10/16/2015,Afternoon,10,0,NA7,1468504,C,10/12/2015,Morning,1,1,1647,1468504,C,10/12/2015,Afternoon,2,1,2677,1468504,C,10/13/2015,Morning,3,1,897,1468504,C,10/13/2015,Afternoon,4,1,6147,1468504,C,10/14/2015,Morning,5,1,907,1468504,C,10/14/2015,Afternoon,6,1,7327,1468504,C,10/15/2015,Morning,7,1,627,1468504,C,10/15/2015,Afternoon,8,1,2627,1468504,C,10/16/2015,Morning,9,1,1227,1468504,C,10/16/2015,Afternoon,10,1,6568,3371239,C,10/12/2015,Morning,1,1,5848,3371239,C,10/12/2015,Afternoon,2,1,2918,3371239,C,10/13/2015,Morning,3,1,5078,3371239,C,10/13/2015,Afternoon,4,1,6198,3371239,C,10/14/2015,Morning,5,1,1538,3371239,C,10/14/2015,Afternoon,6,0,NA8,3371239,C,10/15/2015,Morning,7,1,2488,3371239,C,10/15/2015,Afternoon,8,1,2048,3371239,C,10/16/2015,Morning,9,1,818,3371239,C,10/16/2015,Afternoon,10,1,7199,1468529,C,10/12/2015,Morning,1,1,3689,1468529,C,10/12/2015,Afternoon,2,1,1629,1468529,C,10/13/2015,Morning,3,1,809,1468529,C,10/13/2015,Afternoon,4,1,2249,1468529,C,10/14/2015,Morning,5,1,2029,1468529,C,10/14/2015,Afternoon,6,1,1569,1468529,C,10/15/2015,Morning,7,1,4529,1468529,C,10/15/2015,Afternoon,8,1,2019,1468529,C,10/16/2015,Morning,9,1,1439,1468529,C,10/16/2015,Afternoon,10,1,11810,3371916,C,10/12/2015,Morning,1,1,12810,3371916,C,10/12/2015,Afternoon,2,1,9410,3371916,C,10/13/2015,Morning,3,1,18710,3371916,C,10/13/2015,Afternoon,4,1,14310,3371916,C,10/14/2015,Morning,5,1,21210,3371916,C,10/14/2015,Afternoon,6,1,25310,3371916,C,10/15/2015,Morning,7,1,4510,3371916,C,10/15/2015,Afternoon,8,1,18110,3371916,C,10/16/2015,Morning,9,1,16010,3371916,C,10/16/2015,Afternoon,10,1,33211,1468538,C,10/12/2015,Morning,1,1,22311,1468538,C,10/12/2015,Afternoon,2,0,NA11,1468538,C,10/13/2015,Morning,3,1,42411,1468538,C,10/13/2015,Afternoon,4,1,67611,1468538,C,10/14/2015,Morning,5,1,12911,1468538,C,10/14/2015,Afternoon,6,1,15511,1468538,C,10/15/2015,Morning,7,1,28411,1468538,C,10/15/2015,Afternoon,8,1,16511,1468538,C,10/16/2015,Morning,9,1,23311,1468538,C,10/16/2015,Afternoon,10,1,23712,1468516,C,10/12/2015,Morning,1,1,23912,1468516,C,10/12/2015,Afternoon,2,1,3912,1468516,C,10/13/2015,Morning,3,1,9812,1468516,C,10/13/2015,Afternoon,4,1,2912,1468516,C,10/14/2015,Morning,5,1,1812,1468516,C,10/14/2015,Afternoon,6,1,7812,1468516,C,10/15/2015,Morning,7,1,5912,1468516,C,10/15/2015,Afternoon,8,1,5412,1468516,C,10/16/2015,Morning,9,1,5412,1468516,C,10/16/2015,Afternoon,10,1,1301,1468549,SL,7/20/2015,Morning,1,1,2071,1468549,SL,7/20/2015,Afternoon,2,1,1951,1468549,SL,7/21/2015,Morning,3,1,1571,1468549,SL,7/21/2015,Afternoon,4,1,1731,1468549,SL,7/22/2015,Morning,5,1,1751,1468549,SL,7/22/2015,Afternoon,6,1,1131,1468549,SL,7/23/2015,Morning,7,1,4641,1468549,SL,7/23/2015,Afternoon,8,1,2811,1468549,SL,7/24/2015,Morning,9,1,831,1468549,SL,7/24/2015,Afternoon,10,1,3712,1468506,SL,7/20/2015,Morning,1,1,32382,1468506,SL,7/20/2015,Afternoon,2,1,2902,1468506,SL,7/21/2015,Morning,3,1,1692,1468506,SL,7/21/2015,Afternoon,4,1,1072,1468506,SL,7/22/2015,Morning,5,1,2842,1468506,SL,7/22/2015,Afternoon,6,1,2262,1468506,SL,7/23/2015,Morning,7,1,2022,1468506,SL,7/23/2015,Afternoon,8,1,3522,1468506,SL,7/24/2015,Morning,9,1,1542,1468506,SL,7/24/2015,Afternoon,10,1,2413,1469229,SL,7/20/2015,Morning,1,NA,NA3,1469229,SL,7/20/2015,Afternoon,2,1,3683,1469229,SL,7/21/2015,Morning,3,1,3083,1469229,SL,7/21/2015,Afternoon,4,1,2343,1469229,SL,7/22/2015,Morning,5,1,3513,1469229,SL,7/22/2015,Afternoon,6,1,10663,1469229,SL,7/23/2015,Morning,7,1,7353,1469229,SL,7/23/2015,Afternoon,8,1,7313,1469229,SL,7/24/2015,Morning,9,1,1833,1469229,SL,7/24/2015,Afternoon,10,1,7884,1468502,SL,7/20/2015,Morning,1,NA,NA4,1468502,SL,7/20/2015,Afternoon,2,NA,NA4,1468502,SL,7/21/2015,Morning,3,1,3504,1468502,SL,7/21/2015,Afternoon,4,1,15674,1468502,SL,7/22/2015,Morning,5,1,5494,1468502,SL,7/22/2015,Afternoon,6,1,8234,1468502,SL,7/23/2015,Morning,7,1,8284,1468502,SL,7/23/2015,Afternoon,8,1,9554,1468502,SL,7/24/2015,Morning,9,1,11764,1468502,SL,7/24/2015,Afternoon,10,1,35425,1469703,SL,7/20/2015,Morning,1,1,805,1469703,SL,7/20/2015,Afternoon,2,1,2785,1469703,SL,7/21/2015,Morning,3,1,2515,1469703,SL,7/21/2015,Afternoon,4,1,1755,1469703,SL,7/22/2015,Morning,5,1,2175,1469703,SL,7/22/2015,Afternoon,6,1,995,1469703,SL,7/23/2015,Morning,7,1,5795,1469703,SL,7/23/2015,Afternoon,8,1,1045,1469703,SL,7/24/2015,Morning,9,1,1955,1469703,SL,7/24/2015,Afternoon,10,1,2616,1468510,SL,7/20/2015,Morning,1,1,3176,1468510,SL,7/20/2015,Afternoon,2,1,2036,1468510,SL,7/21/2015,Morning,3,1,11136,1468510,SL,7/21/2015,Afternoon,4,1,29016,1468510,SL,7/22/2015,Morning,5,1,12086,1468510,SL,7/22/2015,Afternoon,6,1,1716,1468510,SL,7/23/2015,Morning,7,1,17406,1468510,SL,7/23/2015,Afternoon,8,1,7766,1468510,SL,7/24/2015,Morning,9,1,25536,1468510,SL,7/24/2015,Afternoon,10,1,6717,3374264,SL,7/20/2015,Morning,1,NA,NA7,3374264,SL,7/20/2015,Afternoon,2,NA,NA7,3374264,SL,7/21/2015,Morning,3,0,NA7,3374264,SL,7/21/2015,Afternoon,4,1,20307,3374264,SL,7/22/2015,Morning,5,NA,NA7,3374264,SL,7/22/2015,Afternoon,6,0,NA7,3374264,SL,7/23/2015,Morning,7,1,10927,3374264,SL,7/23/2015,Afternoon,8,1,5027,3374264,SL,7/24/2015,Morning,9,1,10627,3374264,SL,7/24/2015,Afternoon,10,1,1658,1468509,SL,7/20/2015,Morning,1,1,2638,1468509,SL,7/20/2015,Afternoon,2,1,1908,1468509,SL,7/21/2015,Morning,3,1,2518,1468509,SL,7/21/2015,Afternoon,4,1,9518,1468509,SL,7/22/2015,Morning,5,1,2758,1468509,SL,7/22/2015,Afternoon,6,1,3508,1468509,SL,7/23/2015,Morning,7,1,3098,1468509,SL,7/23/2015,Afternoon,8,1,10518,1468509,SL,7/24/2015,Morning,9,1,8608,1468509,SL,7/24/2015,Afternoon,10,1,5949,1468460,SL,7/20/2015,Morning,1,NA,NA9,1468460,SL,7/20/2015,Afternoon,2,NA,NA9,1468460,SL,7/21/2015,Morning,3,1,4039,1468460,SL,7/21/2015,Afternoon,4,1,8069,1468460,SL,7/22/2015,Morning,5,1,5409,1468460,SL,7/22/2015,Afternoon,6,1,16259,1468460,SL,7/23/2015,Morning,7,1,4519,1468460,SL,7/23/2015,Afternoon,8,1,10439,1468460,SL,7/24/2015,Morning,9,1,4529,1468460,SL,7/24/2015,Afternoon,10,1,62710,1468515,SL,7/20/2015,Morning,1,1,30210,1468515,SL,7/20/2015,Afternoon,2,1,37810,1468515,SL,7/21/2015,Morning,3,1,37810,1468515,SL,7/21/2015,Afternoon,4,1,26510,1468515,SL,7/22/2015,Morning,5,1,38810,1468515,SL,7/22/2015,Afternoon,6,1,47110,1468515,SL,7/23/2015,Morning,7,1,25010,1468515,SL,7/23/2015,Afternoon,8,1,35110,1468515,SL,7/24/2015,Morning,9,1,53910,1468515,SL,7/24/2015,Afternoon,10,NA,NA11,1469223,SL,7/20/2015,Morning,1,1,73111,1469223,SL,7/20/2015,Afternoon,2,1,70411,1469223,SL,7/21/2015,Morning,3,1,80611,1469223,SL,7/21/2015,Afternoon,4,1,125711,1469223,SL,7/22/2015,Morning,5,1,100411,1469223,SL,7/22/2015,Afternoon,6,1,85811,1469223,SL,7/23/2015,Morning,7,1,85811,1469223,SL,7/23/2015,Afternoon,8,1,275611,1469223,SL,7/24/2015,Morning,9,1,127211,1469223,SL,7/24/2015,Afternoon,10,1,109712,1468535,C,7/20/2015,Morning,1,1,154912,1468535,C,7/20/2015,Afternoon,2,1,90112,1468535,C,7/21/2015,Morning,3,1,19812,1468535,C,7/21/2015,Afternoon,4,1,87812,1468535,C,7/22/2015,Morning,5,1,39112,1468535,C,7/22/2015,Afternoon,6,1,72212,1468535,C,7/23/2015,Morning,7,1,47212,1468535,C,7/23/2015,Afternoon,8,0,NA12,1468535,C,7/24/2015,Morning,9,1,106112,1468535,C,7/24/2015,Afternoon,10,1,85914,1469218,C,7/20/2015,Morning,1,NA,NA14,1469218,C,7/20/2015,Afternoon,2,NA,NA14,1469218,C,7/21/2015,Morning,3,1,11514,1469218,C,7/21/2015,Afternoon,4,1,15814,1469218,C,7/22/2015,Morning,5,1,4414,1469218,C,7/22/2015,Afternoon,6,1,16114,1469218,C,7/23/2015,Morning,7,1,13814,1469218,C,7/23/2015,Afternoon,8,1,9214,1469218,C,7/24/2015,Morning,9,1,87814,1469218,C,7/24/2015,Afternoon,10,1,13315,1468476,C,7/20/2015,Morning,1,NA,NA15,1468476,C,7/20/2015,Afternoon,2,1,79315,1468476,C,7/21/2015,Morning,3,1,6815,1468476,C,7/21/2015,Afternoon,4,0,NA15,1468476,C,7/22/2015,Morning,5,0,NA15,1468476,C,7/22/2015,Afternoon,6,0,NA15,1468476,C,7/23/2015,Morning,7,1,37115,1468476,C,7/23/2015,Afternoon,8,1,42515,1468476,C,7/24/2015,Morning,9,0,NA15,1468476,C,7/24/2015,Afternoon,10,NA,NA16,1468532,C,7/20/2015,Morning,1,NA,NA16,1468532,C,7/20/2015,Afternoon,2,NA,NA16,1468532,C,7/21/2015,Morning,3,1,10216,1468532,C,7/21/2015,Afternoon,4,0,NA16,1468532,C,7/22/2015,Morning,5,NA,NA16,1468532,C,7/22/2015,Afternoon,6,1,148216,1468532,C,7/23/2015,Morning,7,0,NA16,1468532,C,7/23/2015,Afternoon,8,0,NA16,1468532,C,7/24/2015,Morning,9,0,NA16,1468532,C,7/24/2015,Afternoon,10,0,NA19,3368899,C,7/20/2015,Morning,1,1,24319,3368899,C,7/20/2015,Afternoon,2,1,4519,3368899,C,7/21/2015,Morning,3,1,10719,3368899,C,7/21/2015,Afternoon,4,1,28019,3368899,C,7/22/2015,Morning,5,1,3519,3368899,C,7/22/2015,Afternoon,6,1,26019,3368899,C,7/23/2015,Morning,7,1,10019,3368899,C,7/23/2015,Afternoon,8,1,11219,3368899,C,7/24/2015,Morning,9,1,9519,3368899,C,7/24/2015,Afternoon,10,1,215